OOIBase32 Version 2.0.6.5 Data File
++++++++++++++++++++++++++++++++++++
Date: 04-23-2021, 12:06:58
User: Valued Ocean Optics Customer
Spectrometer Serial Number: USB2E5007
Spectrometer Channel: Master
Integration Time (msec): 45
Spectra Averaged: 20
Boxcar Smoothing: 0
Correct for Electrical Dark: Disabled
Time Normalized: Disabled
Dual-beam Reference: Disabled
Reference Channel: Master
Temperature: Not acquired
Spectrometer Type: S2000
ADC Type: USB2000
Number of Pixels in File: 2048
Graph Title: 
>>>>>Begin Spectral Data<<<<<
340.15	0.000
340.52	122.500
340.90	124.000
341.27	124.900
341.64	125.900
342.01	130.150
342.38	130.250
342.76	132.250
343.13	134.500
343.50	133.350
343.87	133.950
344.24	133.650
344.61	134.200
344.98	132.900
345.36	133.950
345.73	134.300
346.10	132.950
346.47	133.650
346.84	132.300
347.21	132.700
347.58	132.600
347.96	135.900
348.33	132.900
348.70	132.250
349.07	132.300
349.44	132.500
349.81	135.700
350.18	134.650
350.55	133.600
350.92	134.750
351.30	133.950
351.67	133.850
352.04	133.900
352.41	133.350
352.78	134.500
353.15	135.300
353.52	134.600
353.89	135.700
354.26	134.100
354.63	134.450
355.00	134.600
355.37	134.750
355.75	134.900
356.12	135.050
356.49	135.100
356.86	135.550
357.23	134.650
357.60	135.000
357.97	134.100
358.34	135.500
358.71	136.400
359.08	136.000
359.45	134.550
359.82	135.000
360.19	136.050
360.56	135.850
360.93	135.850
361.30	135.650
361.67	135.350
362.04	136.700
362.41	136.300
362.78	135.650
363.15	137.300
363.52	137.200
363.89	136.500
364.26	135.400
364.63	134.650
365.00	135.050
365.37	136.050
365.74	136.250
366.11	136.200
366.48	137.750
366.85	136.050
367.22	136.750
367.59	137.900
367.96	137.150
368.33	137.000
368.70	137.000
369.07	136.950
369.44	137.200
369.81	137.750
370.18	138.700
370.55	137.250
370.92	137.050
371.29	137.300
371.66	137.500
372.03	137.900
372.40	138.300
372.77	138.650
373.13	137.150
373.50	138.150
373.87	136.600
374.24	137.700
374.61	137.650
374.98	138.100
375.35	137.050
375.72	137.650
376.09	137.500
376.46	137.550
376.83	136.850
377.20	137.300
377.56	137.950
377.93	137.950
378.30	138.150
378.67	137.500
379.04	138.150
379.41	137.950
379.78	137.600
380.15	140.050
380.51	138.650
380.88	137.950
381.25	137.750
381.62	139.250
381.99	138.200
382.36	138.050
382.73	137.350
383.09	139.450
383.46	138.400
383.83	138.700
384.20	138.950
384.57	140.100
384.94	139.150
385.31	138.450
385.67	139.200
386.04	138.650
386.41	138.700
386.78	139.050
387.15	138.850
387.51	140.550
387.88	138.100
388.25	138.950
388.62	139.350
388.99	139.250
389.36	139.100
389.72	139.050
390.09	141.150
390.46	140.100
390.83	139.550
391.19	139.250
391.56	139.050
391.93	138.450
392.30	139.250
392.67	138.600
393.03	138.750
393.40	139.900
393.77	139.000
394.14	140.050
394.50	138.800
394.87	140.000
395.24	139.600
395.61	139.200
395.97	140.150
396.34	138.550
396.71	138.150
397.08	141.350
397.44	140.150
397.81	140.250
398.18	139.350
398.55	139.150
398.91	140.450
399.28	139.550
399.65	141.400
400.01	142.200
400.38	140.850
400.75	139.500
401.12	140.200
401.48	139.550
401.85	140.850
402.22	140.750
402.58	139.450
402.95	141.200
403.32	140.750
403.68	139.600
404.05	139.900
404.42	139.250
404.78	139.500
405.15	139.950
405.52	140.750
405.88	139.500
406.25	140.150
406.62	139.400
406.98	139.200
407.35	140.450
407.72	140.850
408.08	141.400
408.45	141.200
408.82	140.400
409.18	140.300
409.55	140.700
409.91	141.000
410.28	140.200
410.65	139.300
411.01	140.650
411.38	140.500
411.75	140.600
412.11	141.300
412.48	141.400
412.84	142.100
413.21	140.850
413.58	140.650
413.94	141.050
414.31	141.200
414.67	141.750
415.04	141.500
415.41	141.500
415.77	141.800
416.14	142.250
416.50	141.250
416.87	141.900
417.23	141.200
417.60	142.900
417.97	142.350
418.33	141.900
418.70	142.700
419.06	144.350
419.43	144.200
419.79	143.300
420.16	143.250
420.52	144.350
420.89	144.400
421.25	144.300
421.62	145.100
421.98	144.300
422.35	145.200
422.72	144.600
423.08	146.350
423.45	146.950
423.81	147.350
424.18	148.350
424.54	148.450
424.91	149.450
425.27	150.450
425.64	150.300
426.00	152.200
426.37	152.250
426.73	153.000
427.09	153.600
427.46	155.600
427.82	157.450
428.19	156.950
428.55	158.600
428.92	159.200
429.28	162.450
429.65	163.550
430.01	168.050
430.38	167.000
430.74	166.950
431.11	171.600
431.47	176.500
431.83	176.450
432.20	180.700
432.56	182.950
432.93	186.950
433.29	190.800
433.66	194.400
434.02	203.900
434.38	201.050
434.75	206.400
435.11	205.650
435.48	213.300
435.84	214.000
436.20	223.450
436.57	226.450
436.93	232.500
437.30	242.050
437.66	243.500
438.02	260.700
438.39	267.400
438.75	271.300
439.12	287.450
439.48	295.650
439.84	300.950
440.21	310.700
440.57	318.900
440.93	355.200
441.30	358.350
441.66	365.000
442.02	388.750
442.39	393.400
442.75	414.750
443.11	423.200
443.48	446.400
443.84	466.350
444.20	473.750
444.57	527.000
444.93	544.450
445.29	588.900
445.66	587.650
446.02	625.650
446.38	681.900
446.75	703.700
447.11	741.350
447.47	743.200
447.84	782.650
448.20	856.650
448.56	911.650
448.92	950.200
449.29	972.650
449.65	1002.750
450.01	1058.350
450.37	1055.000
450.74	1126.700
451.10	1185.000
451.46	1243.300
451.83	1209.800
452.19	1256.700
452.55	1227.400
452.91	1330.000
453.28	1374.550
453.64	1420.600
454.00	1431.050
454.36	1318.400
454.72	1448.400
455.09	1410.850
455.45	1441.200
455.81	1421.950
456.17	1395.850
456.54	1394.650
456.90	1398.750
457.26	1315.400
457.62	1327.650
457.98	1323.150
458.35	1318.750
458.71	1238.050
459.07	1224.950
459.43	1156.300
459.79	1149.450
460.16	1072.950
460.52	1048.500
460.88	1036.350
461.24	1032.350
461.60	1000.800
461.96	1004.900
462.33	947.650
462.69	914.000
463.05	879.500
463.41	885.000
463.77	853.100
464.13	809.500
464.49	825.450
464.86	797.250
465.22	774.250
465.58	766.050
465.94	772.500
466.30	738.100
466.66	748.900
467.02	745.300
467.38	720.650
467.75	705.900
468.11	689.100
468.47	678.400
468.83	677.000
469.19	671.000
469.55	663.250
469.91	639.700
470.27	605.850
470.63	618.300
470.99	611.950
471.35	588.150
471.72	585.150
472.08	576.050
472.44	560.300
472.80	538.800
473.16	539.150
473.52	522.850
473.88	507.650
474.24	495.750
474.60	489.450
474.96	476.900
475.32	465.700
475.68	448.800
476.04	444.600
476.40	430.600
476.76	424.800
477.12	408.050
477.48	401.400
477.84	398.300
478.20	385.650
478.56	379.800
478.92	370.050
479.28	363.250
479.64	356.800
480.00	352.850
480.36	349.550
480.72	341.100
481.08	337.350
481.44	331.300
481.80	326.350
482.16	321.400
482.52	316.400
482.88	311.200
483.24	308.750
483.60	307.900
483.96	300.750
484.32	298.900
484.68	292.700
485.04	292.150
485.40	288.100
485.76	282.950
486.12	281.600
486.48	278.850
486.83	272.600
487.19	269.850
487.55	266.200
487.91	265.600
488.27	259.800
488.63	258.350
488.99	253.050
489.35	249.150
489.71	244.400
490.07	242.950
490.43	236.300
490.78	234.850
491.14	231.150
491.50	227.150
491.86	224.150
492.22	219.950
492.58	215.550
492.94	213.400
493.30	211.100
493.65	208.150
494.01	204.850
494.37	203.050
494.73	201.150
495.09	199.250
495.45	194.950
495.80	194.500
496.16	191.500
496.52	188.400
496.88	186.500
497.24	184.700
497.60	184.750
497.95	180.550
498.31	180.050
498.67	178.100
499.03	178.150
499.39	175.000
499.74	174.900
500.10	173.100
500.46	172.050
500.82	170.050
501.18	171.500
501.53	169.200
501.89	168.050
502.25	166.800
502.61	164.450
502.96	165.100
503.32	163.900
503.68	165.900
504.04	161.800
504.40	160.950
504.75	161.750
505.11	160.050
505.47	159.650
505.82	161.300
506.18	157.150
506.54	157.400
506.90	158.000
507.25	156.150
507.61	155.250
507.97	155.100
508.33	154.250
508.68	154.300
509.04	153.750
509.40	153.450
509.75	151.050
510.11	152.750
510.47	153.000
510.82	151.900
511.18	150.750
511.54	149.450
511.89	149.900
512.25	149.800
512.61	149.700
512.96	149.900
513.32	148.450
513.68	147.650
514.03	147.450
514.39	147.650
514.75	146.950
515.10	150.200
515.46	147.750
515.82	146.500
516.17	146.150
516.53	146.400
516.89	145.900
517.24	144.100
517.60	144.300
517.95	145.150
518.31	144.850
518.67	145.650
519.02	145.100
519.38	144.800
519.73	143.200
520.09	144.350
520.45	143.500
520.80	143.850
521.16	143.700
521.51	143.000
521.87	142.050
522.22	142.150
522.58	143.200
522.94	143.050
523.29	141.600
523.65	141.400
524.00	143.550
524.36	143.800
524.71	142.200
525.07	141.450
525.42	140.850
525.78	142.050
526.14	140.800
526.49	142.350
526.85	142.750
527.20	141.650
527.56	142.100
527.91	140.950
528.27	141.450
528.62	141.300
528.98	141.000
529.33	140.200
529.69	139.750
530.04	140.400
530.40	140.750
530.75	141.600
531.11	142.150
531.46	141.150
531.81	140.650
532.17	139.550
532.52	140.600
532.88	140.150
533.23	140.650
533.59	141.950
533.94	140.750
534.30	139.050
534.65	139.650
535.01	141.750
535.36	141.850
535.71	139.750
536.07	140.400
536.42	141.800
536.78	141.050
537.13	142.200
537.48	142.550
537.84	143.150
538.19	145.050
538.55	146.250
538.90	147.000
539.25	152.350
539.61	155.500
539.96	156.000
540.32	155.300
540.67	152.550
541.02	152.050
541.38	150.850
541.73	151.250
542.08	151.700
542.44	150.300
542.79	149.350
543.15	150.000
543.50	155.100
543.85	160.350
544.21	161.450
544.56	159.450
544.91	155.950
545.27	151.950
545.62	149.100
545.97	149.700
546.32	146.100
546.68	145.900
547.03	144.800
547.38	146.950
547.74	144.250
548.09	144.300
548.44	142.000
548.80	142.100
549.15	142.550
549.50	141.200
549.85	143.450
550.21	140.600
550.56	141.300
550.91	142.400
551.26	139.550
551.62	140.600
551.97	139.200
552.32	138.750
552.67	138.300
553.03	138.450
553.38	138.400
553.73	138.850
554.08	138.400
554.44	138.750
554.79	139.200
555.14	139.500
555.49	138.500
555.85	139.200
556.20	136.900
556.55	137.750
556.90	137.700
557.25	137.900
557.61	137.300
557.96	139.050
558.31	137.350
558.66	138.150
559.01	137.250
559.36	138.350
559.72	137.800
560.07	137.600
560.42	137.550
560.77	137.800
561.12	137.150
561.47	138.450
561.83	137.650
562.18	137.450
562.53	137.400
562.88	137.450
563.23	138.800
563.58	138.000
563.93	136.550
564.28	139.400
564.64	138.550
564.99	136.700
565.34	136.150
565.69	139.950
566.04	137.450
566.39	136.950
566.74	137.950
567.09	137.450
567.44	138.550
567.79	137.200
568.14	138.250
568.50	136.600
568.85	138.250
569.20	136.150
569.55	137.550
569.90	137.800
570.25	137.800
570.60	137.300
570.95	138.250
571.30	137.100
571.65	136.450
572.00	137.350
572.35	138.600
572.70	136.500
573.05	136.550
573.40	137.100
573.75	136.900
574.10	137.850
574.45	138.500
574.80	138.650
575.15	138.850
575.50	138.050
575.85	137.550
576.20	137.950
576.55	137.900
576.90	139.300
577.25	138.650
577.60	139.300
577.95	138.250
578.30	139.600
578.65	138.700
579.00	138.150
579.35	139.500
579.70	139.400
580.05	138.700
580.40	140.200
580.74	140.550
581.09	138.500
581.44	138.750
581.79	140.100
582.14	139.400
582.49	139.900
582.84	140.650
583.19	139.600
583.54	140.450
583.89	139.950
584.24	139.350
584.58	138.900
584.93	139.850
585.28	141.100
585.63	139.950
585.98	140.650
586.33	139.750
586.68	140.250
587.03	139.850
587.37	138.900
587.72	137.950
588.07	136.700
588.42	138.550
588.77	138.050
589.12	138.500
589.46	138.850
589.81	138.500
590.16	137.450
590.51	138.000
590.86	137.950
591.21	139.400
591.55	139.150
591.90	138.300
592.25	138.600
592.60	138.700
592.95	138.300
593.29	137.800
593.64	138.300
593.99	138.150
594.34	138.400
594.68	138.500
595.03	138.050
595.38	138.500
595.73	137.250
596.07	136.950
596.42	137.400
596.77	137.550
597.12	137.700
597.46	138.550
597.81	137.550
598.16	138.150
598.51	139.300
598.85	138.500
599.20	136.550
599.55	136.850
599.90	136.850
600.24	136.450
600.59	136.550
600.94	136.050
601.28	137.350
601.63	136.500
601.98	136.450
602.32	135.250
602.67	136.800
603.02	137.850
603.36	137.750
603.71	136.850
604.06	138.500
604.40	137.900
604.75	139.200
605.10	137.850
605.44	138.550
605.79	137.800
606.14	137.600
606.48	138.750
606.83	137.900
607.17	138.200
607.52	140.500
607.87	140.800
608.21	142.950
608.56	144.700
608.90	155.150
609.25	158.100
609.60	159.800
609.94	157.300
610.29	154.850
610.63	151.200
610.98	148.000
611.33	147.450
611.67	145.950
612.02	145.700
612.36	144.150
612.71	143.200
613.05	143.250
613.40	142.500
613.74	141.400
614.09	140.950
614.44	139.900
614.78	139.150
615.13	139.300
615.47	138.550
615.82	139.350
616.16	137.400
616.51	139.100
616.85	138.200
617.20	138.800
617.54	139.500
617.89	138.400
618.23	136.800
618.58	137.800
618.92	137.950
619.27	138.700
619.61	138.300
619.96	138.750
620.30	139.000
620.64	138.800
620.99	139.150
621.33	138.600
621.68	139.450
622.02	139.500
622.37	137.750
622.71	138.200
623.06	137.350
623.40	138.650
623.74	138.550
624.09	139.750
624.43	139.200
624.78	138.150
625.12	137.000
625.46	138.300
625.81	137.950
626.15	138.250
626.50	138.150
626.84	137.000
627.18	139.750
627.53	138.250
627.87	137.750
628.21	138.800
628.56	138.700
628.90	137.850
629.25	138.400
629.59	138.200
629.93	138.250
630.28	138.800
630.62	137.050
630.96	138.000
631.31	136.200
631.65	137.200
631.99	136.350
632.34	137.000
632.68	136.250
633.02	136.200
633.36	137.200
633.71	136.300
634.05	137.200
634.39	136.150
634.74	136.800
635.08	136.150
635.42	134.300
635.76	136.750
636.11	135.600
636.45	138.100
636.79	136.750
637.14	135.200
637.48	136.100
637.82	136.800
638.16	135.100
638.50	135.750
638.85	135.750
639.19	136.850
639.53	137.300
639.87	135.600
640.22	135.800
640.56	135.800
640.90	135.900
641.24	135.550
641.58	135.100
641.93	134.750
642.27	137.300
642.61	137.200
642.95	136.000
643.29	135.750
643.64	135.400
643.98	136.050
644.32	135.800
644.66	136.000
645.00	134.700
645.34	136.000
645.68	136.450
646.03	136.400
646.37	137.000
646.71	137.350
647.05	137.250
647.39	136.100
647.73	137.350
648.07	137.600
648.42	138.150
648.76	136.700
649.10	137.400
649.44	137.800
649.78	136.250
650.12	136.900
650.46	136.200
650.80	135.850
651.14	137.550
651.48	137.200
651.82	136.700
652.16	138.000
652.51	136.250
652.85	134.600
653.19	135.500
653.53	136.350
653.87	134.800
654.21	135.400
654.55	135.700
654.89	136.000
655.23	136.200
655.57	136.700
655.91	136.400
656.25	136.600
656.59	135.500
656.93	135.450
657.27	135.250
657.61	137.600
657.95	137.000
658.29	135.500
658.63	135.800
658.97	135.900
659.31	137.250
659.65	135.550
659.99	136.100
660.33	137.600
660.67	136.300
661.01	136.750
661.35	136.000
661.68	137.300
662.02	136.050
662.36	135.650
662.70	136.250
663.04	136.300
663.38	136.250
663.72	135.750
664.06	136.500
664.40	135.650
664.74	135.500
665.08	136.600
665.42	136.400
665.75	135.300
666.09	135.900
666.43	139.750
666.77	136.150
667.11	135.100
667.45	136.500
667.79	137.000
668.12	136.200
668.46	135.450
668.80	134.850
669.14	135.750
669.48	136.300
669.82	136.700
670.16	136.750
670.49	135.500
670.83	136.300
671.17	135.150
671.51	135.350
671.85	135.950
672.18	135.800
672.52	135.500
672.86	134.850
673.20	134.850
673.54	135.550
673.87	135.500
674.21	135.700
674.55	135.400
674.89	135.900
675.22	136.200
675.56	137.100
675.90	136.450
676.24	136.300
676.57	135.200
676.91	136.700
677.25	135.350
677.59	135.750
677.92	134.900
678.26	135.600
678.60	135.350
678.93	135.750
679.27	135.350
679.61	135.100
679.95	136.300
680.28	135.850
680.62	135.600
680.96	135.100
681.29	135.800
681.63	135.200
681.97	134.750
682.30	135.950
682.64	136.300
682.98	135.600
683.31	136.900
683.65	136.000
683.99	134.700
684.32	135.350
684.66	135.750
685.00	136.200
685.33	135.850
685.67	134.650
686.00	135.750
686.34	135.600
686.68	137.600
687.01	136.550
687.35	135.250
687.68	136.900
688.02	135.800
688.36	135.800
688.69	136.050
689.03	135.700
689.36	136.800
689.70	135.950
690.03	136.200
690.37	135.650
690.71	135.150
691.04	135.600
691.38	135.850
691.71	135.850
692.05	135.850
692.38	135.650
692.72	135.250
693.05	136.800
693.39	135.950
693.72	135.250
694.06	134.350
694.39	134.350
694.73	134.850
695.06	135.650
695.40	136.000
695.73	135.750
696.07	137.200
696.40	135.550
696.74	137.650
697.07	137.150
697.41	134.850
697.74	137.050
698.08	135.450
698.41	136.400
698.74	136.600
699.08	135.400
699.41	136.150
699.75	135.100
700.08	134.300
700.42	135.200
700.75	134.500
701.08	135.800
701.42	135.550
701.75	136.200
702.09	137.250
702.42	138.300
702.75	136.300
703.09	135.000
703.42	134.700
703.75	134.850
704.09	136.050
704.42	137.050
704.76	136.350
705.09	136.100
705.42	135.300
705.76	136.700
706.09	136.150
706.42	138.600
706.76	136.200
707.09	135.350
707.42	136.150
707.76	136.250
708.09	134.750
708.42	135.550
708.75	137.250
709.09	135.550
709.42	136.400
709.75	136.300
710.09	137.650
710.42	136.100
710.75	135.800
711.08	136.200
711.42	137.600
711.75	136.300
712.08	135.300
712.41	135.750
712.75	135.950
713.08	135.200
713.41	136.650
713.74	135.600
714.08	135.600
714.41	135.900
714.74	135.100
715.07	136.700
715.41	135.450
715.74	136.400
716.07	135.500
716.40	136.650
716.73	135.800
717.06	134.750
717.40	135.050
717.73	135.050
718.06	137.400
718.39	136.700
718.72	136.050
719.05	135.050
719.39	136.500
719.72	135.500
720.05	135.150
720.38	135.350
720.71	135.250
721.04	135.850
721.37	135.700
721.71	134.950
722.04	134.050
722.37	135.750
722.70	135.400
723.03	136.250
723.36	134.400
723.69	134.450
724.02	135.000
724.35	135.550
724.68	136.600
725.01	134.300
725.35	134.500
725.68	135.200
726.01	134.750
726.34	136.200
726.67	136.050
727.00	135.450
727.33	136.050
727.66	135.650
727.99	135.550
728.32	135.450
728.65	135.600
728.98	135.350
729.31	135.950
729.64	135.450
729.97	134.400
730.30	135.350
730.63	135.700
730.96	135.750
731.29	134.700
731.62	136.300
731.95	136.950
732.28	136.050
732.61	135.750
732.94	136.500
733.27	136.100
733.60	135.200
733.93	135.400
734.25	134.700
734.58	135.100
734.91	134.950
735.24	135.550
735.57	135.500
735.90	136.350
736.23	136.250
736.56	136.000
736.89	135.050
737.22	135.400
737.55	135.950
737.87	137.450
738.20	135.000
738.53	135.000
738.86	136.000
739.19	135.500
739.52	136.750
739.85	135.100
740.17	135.000
740.50	135.100
740.83	135.150
741.16	134.500
741.49	135.750
741.82	135.850
742.14	134.950
742.47	136.100
742.80	135.400
743.13	134.650
743.46	136.300
743.78	136.200
744.11	135.350
744.44	136.100
744.77	136.400
745.10	135.850
745.42	136.700
745.75	135.800
746.08	136.200
746.41	135.650
746.73	134.550
747.06	136.450
747.39	135.200
747.72	135.050
748.04	135.400
748.37	135.600
748.70	134.700
749.02	136.750
749.35	136.050
749.68	134.300
750.01	135.700
750.33	138.000
750.66	135.750
750.99	136.300
751.31	135.200
751.64	134.800
751.97	134.600
752.29	136.900
752.62	134.600
752.95	136.050
753.27	136.100
753.60	136.350
753.93	135.650
754.25	136.300
754.58	136.250
754.91	135.800
755.23	136.150
755.56	138.450
755.88	136.550
756.21	135.950
756.54	134.500
756.86	135.100
757.19	134.900
757.51	135.500
757.84	136.250
758.17	135.500
758.49	136.450
758.82	134.500
759.14	135.100
759.47	135.400
759.79	136.050
760.12	135.950
760.44	135.250
760.77	134.750
761.09	134.600
761.42	135.550
761.75	136.800
762.07	136.100
762.40	135.150
762.72	135.850
763.05	136.450
763.37	135.900
763.70	134.850
764.02	136.450
764.35	134.900
764.67	133.950
764.99	135.600
765.32	135.550
765.64	134.600
765.97	135.300
766.29	134.950
766.62	134.050
766.94	137.750
767.27	136.650
767.59	135.400
767.91	135.650
768.24	136.500
768.56	135.300
768.89	135.750
769.21	135.050
769.54	135.900
769.86	135.800
770.18	134.650
770.51	135.300
770.83	136.000
771.15	136.950
771.48	135.100
771.80	134.500
772.13	135.250
772.45	136.400
772.77	136.050
773.10	136.300
773.42	135.650
773.74	134.850
774.07	135.350
774.39	135.900
774.71	134.450
775.04	135.900
775.36	135.150
775.68	136.050
776.01	134.250
776.33	134.650
776.65	134.700
776.97	134.550
777.30	136.500
777.62	136.400
777.94	135.850
778.26	135.150
778.59	135.400
778.91	134.750
779.23	135.650
779.55	135.800
779.88	136.700
780.20	135.800
780.52	134.650
780.84	133.900
781.17	133.950
781.49	135.250
781.81	135.800
782.13	135.400
782.45	136.750
782.78	135.250
783.10	135.900
783.42	135.850
783.74	134.500
784.06	134.750
784.39	134.050
784.71	135.850
785.03	136.000
785.35	136.150
785.67	135.400
785.99	134.050
786.31	135.150
786.64	134.950
786.96	135.250
787.28	135.200
787.60	135.150
787.92	134.550
788.24	135.350
788.56	136.050
788.88	134.500
789.20	136.850
789.53	135.450
789.85	135.650
790.17	135.000
790.49	134.850
790.81	135.950
791.13	135.800
791.45	135.450
791.77	135.700
792.09	136.650
792.41	134.600
792.73	134.750
793.05	134.450
793.37	136.100
793.69	136.200
794.01	135.550
794.33	136.050
794.65	134.450
794.97	134.600
795.29	135.750
795.61	136.100
795.93	135.300
796.25	135.600
796.57	136.200
796.89	135.000
797.21	137.950
797.53	135.100
797.85	136.000
798.17	134.600
798.49	135.050
798.81	134.900
799.13	135.450
799.45	137.350
799.77	135.450
800.08	136.600
800.40	134.650
800.72	135.000
801.04	136.100
801.36	135.650
801.68	134.850
802.00	135.750
802.32	134.500
802.64	135.800
802.95	136.150
803.27	135.700
803.59	135.800
803.91	134.800
804.23	135.100
804.55	134.400
804.87	134.550
805.18	134.200
805.50	136.000
805.82	135.650
806.14	136.000
806.46	135.150
806.77	136.550
807.09	137.100
807.41	135.550
807.73	135.000
808.05	135.400
808.36	135.450
808.68	135.100
809.00	134.850
809.32	135.450
809.63	134.450
809.95	135.500
810.27	136.000
810.59	134.250
810.90	134.350
811.22	134.550
811.54	134.700
811.86	136.250
812.17	136.900
812.49	134.650
812.81	134.550
813.12	134.800
813.44	136.100
813.76	135.250
814.08	135.750
814.39	134.500
814.71	134.600
815.03	135.100
815.34	133.850
815.66	135.200
815.98	134.050
816.29	134.800
816.61	136.200
816.92	134.850
817.24	133.900
817.56	135.650
817.87	134.850
818.19	134.900
818.51	136.350
818.82	136.200
819.14	136.400
819.45	136.500
819.77	133.750
820.09	135.750
820.40	135.950
820.72	135.100
821.03	135.000
821.35	135.550
821.66	134.650
821.98	136.600
822.29	135.950
822.61	135.700
822.93	135.350
823.24	135.400
823.56	135.750
823.87	134.300
824.19	134.100
824.50	134.200
824.82	135.350
825.13	135.150
825.45	135.150
825.76	135.900
826.08	135.700
826.39	135.200
826.71	135.300
827.02	135.500
827.33	134.750
827.65	134.150
827.96	135.400
828.28	134.300
828.59	135.850
828.91	134.750
829.22	134.300
829.54	134.600
829.85	136.050
830.16	136.000
830.48	135.950
830.79	135.900
831.11	134.350
831.42	135.150
831.73	136.150
832.05	135.600
832.36	135.000
832.67	135.300
832.99	135.400
833.30	135.500
833.62	134.550
833.93	135.800
834.24	135.400
834.56	135.650
834.87	136.050
835.18	137.350
835.50	135.850
835.81	134.050
836.12	134.950
836.43	134.750
836.75	135.300
837.06	134.650
837.37	134.950
837.69	134.300
838.00	135.150
838.31	135.250
838.62	135.150
838.94	134.750
839.25	134.950
839.56	135.300
839.87	136.050
840.19	136.750
840.50	136.200
840.81	134.300
841.12	134.800
841.44	134.950
841.75	135.350
842.06	135.650
842.37	134.200
842.68	134.700
843.00	135.550
843.31	134.750
843.62	135.050
843.93	135.200
844.24	136.550
844.55	134.950
844.87	133.850
845.18	135.400
845.49	134.650
845.80	136.450
846.11	135.150
846.42	135.950
846.73	135.450
847.05	134.100
847.36	133.450
847.67	134.300
847.98	133.700
848.29	134.350
848.60	135.650
848.91	135.400
849.22	134.100
849.53	134.800
849.84	135.050
850.15	134.200
850.46	135.900
850.78	135.250
851.09	134.500
851.40	135.250
851.71	135.300
852.02	134.900
852.33	135.200
852.64	136.550
852.95	135.650
853.26	134.650
853.57	135.550
853.88	136.750
854.19	134.950
854.50	134.950
854.81	135.550
855.12	135.600
855.43	133.550
855.74	134.700
856.05	135.250
856.35	136.050
856.66	135.000
856.97	134.900
857.28	135.450
857.59	137.150
857.90	134.450
858.21	134.650
858.52	134.900
858.83	134.350
859.14	133.850
859.45	134.700
859.76	135.200
860.06	137.500
860.37	136.050
860.68	134.700
860.99	134.600
861.30	135.350
861.61	134.850
861.92	135.750
862.23	135.550
862.53	135.600
862.84	134.900
863.15	134.050
863.46	135.550
863.77	135.100
864.08	135.150
864.38	134.850
864.69	135.300
865.00	135.800
865.31	135.600
865.61	135.550
865.92	135.550
866.23	135.250
866.54	135.350
866.85	135.200
867.15	136.050
867.46	135.800
867.77	135.700
868.08	133.950
868.38	133.900
868.69	134.250
869.00	136.050
869.30	134.700
869.61	133.850
869.92	137.000
870.23	135.250
870.53	134.950
870.84	134.900
871.15	134.700
871.45	133.950
871.76	135.100
872.07	135.850
872.37	136.350
872.68	133.700
872.99	133.950
873.29	135.600
873.60	135.650
873.91	134.650
874.21	134.350
874.52	134.500
874.82	135.950
875.13	136.350
875.44	135.650
875.74	135.300
876.05	134.800
876.35	134.250
876.66	135.000
876.97	134.250
877.27	135.200
877.58	136.400
877.88	136.300
878.19	136.050
878.49	135.700
878.80	133.900
879.10	136.750
879.41	135.250
879.72	134.050
880.02	134.600
880.33	135.150
880.63	135.300
880.94	134.450
881.24	134.800
881.55	134.850
881.85	134.500
882.16	135.600
882.46	134.750
882.76	134.700
883.07	135.300
883.37	135.950
883.68	135.700
883.98	135.350
884.29	135.250
884.59	135.800
884.90	136.750
885.20	135.950
885.50	135.700
885.81	134.550
886.11	135.850
886.42	135.550
886.72	134.200
887.02	135.300
887.33	135.100
887.63	134.800
887.94	135.550
888.24	137.050
888.54	135.350
888.85	134.400
889.15	135.800
889.45	135.950
889.76	135.850
890.06	135.250
890.36	136.350
890.67	138.450
890.97	135.850
891.27	136.000
891.58	134.550
891.88	133.500
892.18	134.000
892.48	135.450
892.79	134.350
893.09	135.850
893.39	133.250
893.70	135.650
894.00	135.400
894.30	135.650
894.60	135.350
894.91	136.050
895.21	135.600
895.51	136.250
895.81	135.550
896.11	135.000
896.42	133.950
896.72	135.650
897.02	136.300
897.32	134.950
897.62	134.600
897.93	134.200
898.23	134.100
898.53	135.600
898.83	136.400
899.13	135.750
899.43	135.550
899.74	134.300
900.04	134.750
900.34	134.250
900.64	134.450
900.94	135.750
901.24	135.050
901.54	135.200
901.84	135.450
902.15	135.050
902.45	135.100
902.75	134.850
903.05	134.450
903.35	135.400
903.65	134.750
903.95	134.450
904.25	133.800
904.55	135.100
904.85	134.950
905.15	135.950
905.45	136.550
905.75	135.800
906.05	134.250
906.35	133.600
906.65	135.600
906.95	137.600
907.25	136.050
907.55	134.300
907.85	134.750
908.15	134.450
908.45	135.500
908.75	134.500
909.05	134.650
909.35	134.850
909.65	135.250
909.95	136.850
910.25	135.100
910.55	135.300
910.85	137.750
911.15	134.600
911.45	134.850
911.75	135.300
912.05	135.100
912.34	137.850
912.64	135.150
912.94	134.350
913.24	134.300
913.54	136.000
913.84	136.650
914.14	135.200
914.44	134.100
914.73	135.400
915.03	135.000
915.33	135.000
915.63	133.650
915.93	133.550
916.23	135.450
916.52	134.150
916.82	135.400
917.12	135.350
917.42	136.050
917.72	135.300
918.01	135.950
918.31	134.500
918.61	135.100
918.91	134.800
919.21	135.050
919.50	135.250
919.80	134.550
920.10	134.750
920.40	136.850
920.69	134.350
920.99	135.400
921.29	133.550
921.58	134.100
921.88	134.500
922.18	135.000
922.48	135.150
922.77	134.150
923.07	135.550
923.37	136.600
923.66	135.100
923.96	133.600
924.26	134.650
924.55	134.650
924.85	135.250
925.15	134.550
925.44	135.650
925.74	134.350
926.04	135.100
926.33	135.000
926.63	134.650
926.92	135.650
927.22	137.050
927.52	135.200
927.81	135.700
928.11	134.850
928.40	135.550
928.70	135.400
929.00	136.350
929.29	134.600
929.59	134.150
929.88	134.550
930.18	133.450
930.47	134.450
930.77	135.650
931.06	135.200
931.36	134.500
931.65	135.000
931.95	134.900
932.24	134.200
932.54	135.350
932.83	134.900
933.13	135.250
933.42	134.350
933.72	134.050
934.01	135.450
934.31	134.900
934.60	134.550
934.90	134.050
935.19	134.950
935.49	135.300
935.78	134.250
936.07	135.900
936.37	135.150
936.66	135.550
936.96	135.050
937.25	134.000
937.54	134.900
937.84	134.400
938.13	135.150
938.43	134.000
938.72	134.450
939.01	134.100
939.31	134.600
939.60	134.100
939.89	135.150
940.19	134.850
940.48	135.600
940.77	136.250
941.07	135.900
941.36	134.850
941.65	134.550
941.95	136.100
942.24	134.600
942.53	135.500
942.82	133.850
943.12	134.650
943.41	135.200
943.70	134.600
944.00	133.850
944.29	133.850
944.58	134.200
944.87	134.900
945.17	135.550
945.46	134.750
945.75	135.250
946.04	134.950
946.33	134.800
946.63	134.900
946.92	134.500
947.21	134.450
947.50	134.250
947.79	134.800
948.09	134.200
948.38	134.500
948.67	135.650
948.96	134.950
949.25	134.900
949.54	135.050
949.83	135.400
950.13	134.450
950.42	134.150
950.71	133.550
951.00	134.250
951.29	134.350
951.58	135.450
951.87	136.100
952.16	135.950
952.45	134.450
952.75	135.250
953.04	135.650
953.33	137.600
953.62	135.300
953.91	134.100
954.20	135.950
954.49	134.750
954.78	134.550
955.07	134.350
955.36	135.750
955.65	135.000
955.94	135.750
956.23	136.050
956.52	135.300
956.81	135.700
957.10	135.000
957.39	135.300
957.68	134.850
957.97	135.250
958.26	135.750
958.55	135.350
958.84	134.300
959.13	135.250
959.42	138.350
959.71	135.250
960.00	134.600
960.28	135.250
960.57	134.700
960.86	134.950
961.15	133.650
961.44	134.950
961.73	134.400
962.02	135.100
962.31	135.550
962.60	136.100
962.88	134.500
963.17	135.200
963.46	133.900
963.75	134.400
964.04	134.550
964.33	135.300
964.61	134.600
964.90	135.450
965.19	134.600
965.48	135.200
965.77	135.900
966.05	135.800
966.34	134.450
966.63	134.750
966.92	136.050
967.21	136.250
967.49	135.350
967.78	135.050
968.07	135.000
968.36	135.950
968.64	135.650
968.93	135.200
969.22	133.600
969.51	134.300
969.79	134.950
970.08	135.150
970.37	136.650
970.65	136.050
970.94	133.450
971.23	133.700
971.51	134.350
971.80	135.400
972.09	135.300
972.37	135.200
972.66	135.100
972.95	135.450
973.23	134.450
973.52	133.600
973.81	134.300
974.09	135.400
974.38	133.800
974.66	134.550
974.95	135.250
975.24	133.750
975.52	134.900
975.81	134.850
976.09	134.250
976.38	133.550
976.66	136.600
976.95	135.200
977.24	133.900
977.52	134.700
977.81	135.050
978.09	135.650
978.38	134.900
978.66	134.600
978.95	135.050
979.23	135.750
979.52	134.550
979.80	133.450
980.09	135.100
980.37	136.700
980.66	134.100
980.94	134.250
981.23	135.550
981.51	134.100
981.80	134.400
982.08	133.050
982.36	136.450
982.65	136.600
982.93	134.650
983.22	133.850
983.50	136.400
983.78	135.450
984.07	135.850
984.35	134.550
984.64	133.850
984.92	135.350
985.20	134.800
985.49	135.750
985.77	135.600
986.05	135.100
986.34	135.200
986.62	134.150
986.91	135.600
987.19	136.650
987.47	135.200
987.75	136.250
988.04	134.550
988.32	136.750
988.60	134.400
988.89	135.200
989.17	134.250
989.45	135.550
989.74	134.800
990.02	134.400
990.30	135.000
990.58	135.300
990.87	134.650
991.15	134.650
991.43	134.600
991.71	134.050
991.99	134.200
992.28	135.100
992.56	135.750
992.84	136.300
993.12	134.850
993.40	134.300
993.69	135.000
993.97	134.750
994.25	135.700
994.53	134.200
994.81	135.750
995.09	133.050
995.38	134.200
995.66	135.050
995.94	135.800
996.22	135.150
996.50	135.700
996.78	134.500
997.06	134.100
997.34	134.700
997.63	134.550
997.91	135.500
998.19	136.250
998.47	134.550
998.75	134.650
999.03	133.250
999.31	136.400
999.59	135.900
999.87	134.900
1000.15	135.400
1000.43	134.850
1000.71	135.300
1000.99	135.550
1001.27	135.900
1001.55	135.550
1001.83	134.650
1002.11	133.700
1002.39	134.950
1002.67	135.250
1002.95	136.700
1003.23	134.250
1003.51	135.250
1003.79	135.100
1004.07	135.150
1004.35	135.000
1004.63	134.750
1004.91	135.000
1005.19	134.950
1005.46	134.600
1005.74	134.500
1006.02	135.300
1006.30	134.950
1006.58	135.300
1006.86	135.800
1007.14	135.550
1007.42	135.900
1007.70	134.850
1007.97	136.200
1008.25	134.250
1008.53	134.200
1008.81	133.500
1009.09	134.500
1009.37	133.650
1009.64	133.850
1009.92	133.850
1010.20	134.950
1010.48	134.850
1010.76	135.250
1011.03	134.100
1011.31	134.500
1011.59	134.900
1011.87	134.550
1012.14	135.100
1012.42	134.150
1012.70	135.100
1012.98	134.350
1013.25	134.450
1013.53	135.000
1013.81	134.600
1014.08	135.400
1014.36	133.950
1014.64	134.550
1014.92	134.200
1015.19	133.550
1015.47	133.500
1015.75	134.850
1016.02	135.350
1016.30	134.250
1016.58	136.050
1016.85	134.350
>>>>>End Spectral Data<<<<<
