OOIBase32 Version 2.0.6.5 Data File
++++++++++++++++++++++++++++++++++++
Date: 03-26-2021, 17:49:20
User: Valued Ocean Optics Customer
Spectrometer Serial Number: USB2E5007
Spectrometer Channel: Master
Integration Time (msec): 45
Spectra Averaged: 20
Boxcar Smoothing: 0
Correct for Electrical Dark: Disabled
Time Normalized: Disabled
Dual-beam Reference: Disabled
Reference Channel: Master
Temperature: Not acquired
Spectrometer Type: S2000
ADC Type: USB2000
Number of Pixels in File: 2048
Graph Title: 
>>>>>Begin Spectral Data<<<<<
340.15	0.000
340.52	159.700
340.90	161.050
341.27	162.850
341.64	163.300
342.01	166.450
342.38	167.500
342.76	168.550
343.13	169.450
343.50	169.050
343.87	170.650
344.24	169.850
344.61	169.600
344.98	168.850
345.36	169.550
345.73	171.150
346.10	167.100
346.47	170.150
346.84	168.150
347.21	168.950
347.58	169.100
347.96	171.900
348.33	167.400
348.70	169.100
349.07	169.750
349.44	170.150
349.81	174.350
350.18	172.950
350.55	172.500
350.92	171.600
351.30	172.000
351.67	171.400
352.04	171.800
352.41	172.200
352.78	174.400
353.15	172.150
353.52	172.650
353.89	174.150
354.26	170.600
354.63	173.350
355.00	173.200
355.37	172.700
355.75	172.750
356.12	172.600
356.49	174.650
356.86	174.300
357.23	173.400
357.60	174.150
357.97	172.450
358.34	173.700
358.71	174.900
359.08	173.500
359.45	173.550
359.82	173.850
360.19	174.100
360.56	173.750
360.93	174.400
361.30	174.700
361.67	173.650
362.04	175.600
362.41	174.500
362.78	173.900
363.15	176.000
363.52	174.750
363.89	174.100
364.26	175.150
364.63	175.050
365.00	175.750
365.37	174.450
365.74	174.600
366.11	174.450
366.48	176.150
366.85	173.850
367.22	174.450
367.59	176.850
367.96	173.750
368.33	175.150
368.70	177.000
369.07	175.950
369.44	175.250
369.81	175.200
370.18	176.600
370.55	174.700
370.92	175.750
371.29	177.100
371.66	177.000
372.03	175.350
372.40	174.800
372.77	177.350
373.13	175.400
373.50	177.850
373.87	176.250
374.24	176.400
374.61	177.050
374.98	176.950
375.35	177.400
375.72	176.100
376.09	175.900
376.46	176.700
376.83	175.900
377.20	177.450
377.56	177.050
377.93	175.550
378.30	177.800
378.67	176.550
379.04	176.550
379.41	177.350
379.78	178.500
380.15	179.750
380.51	176.450
380.88	177.300
381.25	176.300
381.62	177.700
381.99	178.200
382.36	177.100
382.73	176.200
383.09	179.100
383.46	177.100
383.83	177.850
384.20	177.200
384.57	178.550
384.94	179.550
385.31	177.600
385.67	177.400
386.04	176.800
386.41	177.750
386.78	178.800
387.15	180.550
387.51	177.750
387.88	179.900
388.25	179.000
388.62	177.750
388.99	177.800
389.36	179.400
389.72	178.900
390.09	185.700
390.46	178.400
390.83	178.800
391.19	180.450
391.56	178.200
391.93	178.200
392.30	179.650
392.67	179.750
393.03	178.250
393.40	179.350
393.77	178.300
394.14	180.450
394.50	179.600
394.87	179.450
395.24	178.400
395.61	179.350
395.97	179.350
396.34	181.800
396.71	179.800
397.08	181.100
397.44	180.250
397.81	180.150
398.18	181.350
398.55	179.900
398.91	180.600
399.28	180.200
399.65	180.750
400.01	181.000
400.38	179.250
400.75	178.550
401.12	182.250
401.48	178.800
401.85	179.950
402.22	180.550
402.58	181.400
402.95	181.750
403.32	181.000
403.68	179.450
404.05	181.250
404.42	180.150
404.78	182.000
405.15	181.000
405.52	181.850
405.88	180.550
406.25	181.000
406.62	181.700
406.98	181.100
407.35	180.100
407.72	180.850
408.08	181.200
408.45	179.750
408.82	181.500
409.18	179.800
409.55	181.250
409.91	180.250
410.28	181.350
410.65	182.550
411.01	183.100
411.38	180.800
411.75	181.350
412.11	181.300
412.48	181.700
412.84	182.200
413.21	181.350
413.58	182.350
413.94	182.550
414.31	181.400
414.67	181.900
415.04	180.350
415.41	181.200
415.77	182.450
416.14	180.650
416.50	182.700
416.87	181.850
417.23	182.150
417.60	182.100
417.97	182.450
418.33	183.450
418.70	182.500
419.06	184.650
419.43	183.000
419.79	182.500
420.16	182.650
420.52	182.650
420.89	181.750
421.25	183.550
421.62	184.250
421.98	180.750
422.35	183.350
422.72	181.700
423.08	183.200
423.45	183.550
423.81	183.750
424.18	185.300
424.54	182.500
424.91	183.000
425.27	183.000
425.64	182.800
426.00	182.300
426.37	184.000
426.73	184.250
427.09	184.750
427.46	184.900
427.82	186.350
428.19	184.050
428.55	184.300
428.92	184.500
429.28	183.350
429.65	183.350
430.01	185.950
430.38	184.250
430.74	183.300
431.11	184.800
431.47	185.600
431.83	185.450
432.20	184.250
432.56	185.650
432.93	184.600
433.29	186.250
433.66	189.350
434.02	193.850
434.38	190.300
434.75	187.250
435.11	184.450
435.48	183.800
435.84	184.250
436.20	184.600
436.57	183.450
436.93	184.400
437.30	185.450
437.66	184.550
438.02	183.650
438.39	184.250
438.75	186.200
439.12	187.000
439.48	185.700
439.84	187.900
440.21	184.250
440.57	184.800
440.93	185.100
441.30	182.850
441.66	185.450
442.02	183.100
442.39	184.900
442.75	186.400
443.11	184.500
443.48	185.400
443.84	183.750
444.20	184.350
444.57	183.800
444.93	185.000
445.29	187.350
445.66	184.100
446.02	184.450
446.38	185.450
446.75	185.500
447.11	184.800
447.47	184.050
447.84	183.850
448.20	186.650
448.56	186.350
448.92	184.500
449.29	186.900
449.65	184.850
450.01	186.100
450.37	186.700
450.74	184.400
451.10	185.450
451.46	185.400
451.83	185.150
452.19	188.550
452.55	185.200
452.91	184.950
453.28	186.300
453.64	186.000
454.00	187.700
454.36	182.500
454.72	186.400
455.09	185.800
455.45	185.050
455.81	184.850
456.17	186.050
456.54	186.650
456.90	185.200
457.26	187.550
457.62	185.000
457.98	185.300
458.35	185.050
458.71	184.800
459.07	185.450
459.43	186.500
459.79	185.500
460.16	184.900
460.52	184.500
460.88	186.450
461.24	186.750
461.60	185.350
461.96	185.450
462.33	186.200
462.69	186.950
463.05	185.850
463.41	184.950
463.77	186.400
464.13	186.550
464.49	187.100
464.86	186.200
465.22	186.350
465.58	185.800
465.94	184.750
466.30	185.900
466.66	187.850
467.02	186.000
467.38	185.000
467.75	186.600
468.11	186.750
468.47	188.100
468.83	186.200
469.19	187.750
469.55	185.100
469.91	187.600
470.27	187.700
470.63	186.300
470.99	186.750
471.35	187.850
471.72	187.600
472.08	187.200
472.44	187.400
472.80	186.550
473.16	186.850
473.52	188.050
473.88	188.400
474.24	191.150
474.60	187.000
474.96	189.050
475.32	188.100
475.68	189.600
476.04	189.850
476.40	191.100
476.76	189.450
477.12	189.900
477.48	189.950
477.84	190.550
478.20	189.500
478.56	190.000
478.92	189.900
479.28	190.500
479.64	190.900
480.00	191.300
480.36	191.400
480.72	192.950
481.08	192.600
481.44	192.900
481.80	192.500
482.16	193.550
482.52	193.900
482.88	191.550
483.24	194.250
483.60	193.850
483.96	196.500
484.32	195.050
484.68	195.050
485.04	195.250
485.40	196.050
485.76	196.950
486.12	197.000
486.48	197.400
486.83	198.650
487.19	195.900
487.55	196.550
487.91	201.550
488.27	198.750
488.63	199.750
488.99	198.300
489.35	200.400
489.71	198.550
490.07	198.650
490.43	198.200
490.78	200.250
491.14	201.850
491.50	201.500
491.86	202.050
492.22	201.600
492.58	201.350
492.94	202.450
493.30	203.400
493.65	203.900
494.01	203.950
494.37	206.750
494.73	204.950
495.09	205.650
495.45	206.200
495.80	207.950
496.16	208.100
496.52	208.100
496.88	209.200
497.24	208.950
497.60	210.500
497.95	209.550
498.31	211.600
498.67	212.050
499.03	213.800
499.39	214.250
499.74	215.050
500.10	217.400
500.46	218.000
500.82	218.150
501.18	219.900
501.53	221.400
501.89	220.850
502.25	223.750
502.61	224.500
502.96	227.500
503.32	232.500
503.68	236.250
504.04	232.600
504.40	234.750
504.75	238.950
505.11	241.800
505.47	242.300
505.82	248.300
506.18	249.800
506.54	250.700
506.90	255.500
507.25	259.950
507.61	265.900
507.97	279.200
508.33	287.100
508.68	304.050
509.04	309.900
509.40	314.400
509.75	317.900
510.11	326.350
510.47	325.750
510.82	327.900
511.18	333.450
511.54	343.300
511.89	347.600
512.25	350.800
512.61	358.650
512.96	355.750
513.32	351.850
513.68	350.850
514.03	355.850
514.39	370.100
514.75	386.800
515.10	404.050
515.46	409.200
515.82	418.250
516.17	413.050
516.53	419.900
516.89	423.100
517.24	437.450
517.60	449.550
517.95	453.800
518.31	476.250
518.67	472.050
519.02	485.550
519.38	494.900
519.73	514.600
520.09	533.950
520.45	563.850
520.80	611.500
521.16	638.600
521.51	681.000
521.87	712.900
522.22	770.300
522.58	823.950
522.94	925.400
523.29	1235.700
523.65	1739.250
524.00	2181.200
524.36	2414.450
524.71	2272.400
525.07	2049.950
525.42	2054.950
525.78	2195.400
526.14	2253.000
526.49	2385.050
526.85	2452.400
527.20	2576.500
527.56	2840.150
527.91	3132.650
528.27	3557.150
528.62	4065.700
528.98	4064.050
529.33	4064.000
529.69	4064.300
530.04	4063.800
530.40	4063.300
530.75	4064.150
531.11	4064.100
531.46	4057.250
531.81	4056.100
532.17	4063.600
532.52	3322.550
532.88	2532.600
533.23	2366.800
533.59	2233.200
533.94	1979.700
534.30	1920.100
534.65	1765.450
535.01	1719.550
535.36	1564.000
535.71	1359.000
536.07	1186.350
536.42	1063.500
536.78	911.250
537.13	829.650
537.48	781.250
537.84	762.050
538.19	703.350
538.55	640.050
538.90	600.350
539.25	569.600
539.61	538.200
539.96	481.800
540.32	440.150
540.67	415.550
541.02	396.450
541.38	375.350
541.73	370.450
542.08	352.700
542.44	337.250
542.79	324.150
543.15	313.350
543.50	308.600
543.85	299.400
544.21	294.700
544.56	284.900
544.91	278.950
545.27	266.200
545.62	260.250
545.97	255.300
546.32	248.400
546.68	244.100
547.03	237.750
547.38	240.050
547.74	233.300
548.09	228.400
548.44	226.000
548.80	221.750
549.15	219.450
549.50	212.650
549.85	210.850
550.21	208.350
550.56	207.150
550.91	204.450
551.26	202.750
551.62	201.350
551.97	200.050
552.32	198.100
552.67	194.500
553.03	196.100
553.38	193.300
553.73	190.800
554.08	191.900
554.44	187.650
554.79	187.250
555.14	186.050
555.49	184.600
555.85	183.850
556.20	182.200
556.55	181.700
556.90	179.100
557.25	179.500
557.61	179.450
557.96	178.750
558.31	176.450
558.66	176.050
559.01	178.400
559.36	174.500
559.72	174.050
560.07	173.700
560.42	173.000
560.77	173.150
561.12	173.150
561.47	170.850
561.83	172.700
562.18	171.150
562.53	172.350
562.88	170.450
563.23	171.350
563.58	170.100
563.93	170.900
564.28	172.700
564.64	170.300
564.99	168.400
565.34	170.050
565.69	170.900
566.04	168.800
566.39	167.450
566.74	167.500
567.09	168.250
567.44	167.950
567.79	167.400
568.14	167.650
568.50	166.400
568.85	167.100
569.20	165.850
569.55	166.200
569.90	165.050
570.25	164.250
570.60	165.050
570.95	162.950
571.30	163.400
571.65	162.250
572.00	161.950
572.35	162.750
572.70	163.600
573.05	161.950
573.40	162.400
573.75	161.450
574.10	162.600
574.45	161.850
574.80	163.850
575.15	164.250
575.50	163.750
575.85	162.550
576.20	161.900
576.55	161.100
576.90	162.050
577.25	162.650
577.60	161.650
577.95	163.000
578.30	162.450
578.65	162.850
579.00	161.550
579.35	162.600
579.70	161.050
580.05	160.300
580.40	163.000
580.74	162.850
581.09	162.550
581.44	160.950
581.79	161.900
582.14	161.500
582.49	163.050
582.84	160.150
583.19	160.700
583.54	161.700
583.89	162.250
584.24	159.800
584.58	161.450
584.93	159.350
585.28	160.600
585.63	159.100
585.98	161.250
586.33	160.800
586.68	160.200
587.03	160.000
587.37	159.600
587.72	157.700
588.07	157.600
588.42	158.150
588.77	157.150
589.12	158.150
589.46	158.650
589.81	159.050
590.16	158.200
590.51	157.500
590.86	158.750
591.21	157.250
591.55	158.200
591.90	158.150
592.25	158.650
592.60	155.800
592.95	156.850
593.29	156.950
593.64	155.700
593.99	156.350
594.34	157.050
594.68	157.100
595.03	157.200
595.38	156.950
595.73	155.700
596.07	155.400
596.42	155.650
596.77	155.350
597.12	155.650
597.46	155.650
597.81	155.200
598.16	156.200
598.51	156.050
598.85	156.500
599.20	155.600
599.55	155.100
599.90	156.800
600.24	155.350
600.59	155.100
600.94	154.700
601.28	155.250
601.63	156.200
601.98	155.000
602.32	155.450
602.67	155.700
603.02	156.750
603.36	157.500
603.71	155.800
604.06	155.300
604.40	156.850
604.75	156.500
605.10	155.950
605.44	156.450
605.79	157.000
606.14	157.550
606.48	158.600
606.83	155.300
607.17	157.450
607.52	158.350
607.87	160.350
608.21	161.750
608.56	163.550
608.90	170.100
609.25	176.100
609.60	178.150
609.94	175.300
610.29	174.850
610.63	170.400
610.98	169.600
611.33	166.900
611.67	166.650
612.02	165.850
612.36	164.300
612.71	164.050
613.05	165.150
613.40	166.850
613.74	166.250
614.09	168.800
614.44	167.400
614.78	167.000
615.13	167.600
615.47	165.400
615.82	166.350
616.16	165.400
616.51	166.300
616.85	166.250
617.20	170.700
617.54	174.450
617.89	176.350
618.23	179.400
618.58	181.800
618.92	181.200
619.27	181.650
619.61	181.950
619.96	179.700
620.30	181.550
620.64	179.900
620.99	184.950
621.33	191.200
621.68	196.350
622.02	206.500
622.37	214.350
622.71	221.650
623.06	224.450
623.40	224.500
623.74	223.900
624.09	222.950
624.43	220.500
624.78	220.450
625.12	224.400
625.46	235.000
625.81	245.500
626.15	264.050
626.50	280.950
626.84	295.100
627.18	310.250
627.53	313.200
627.87	308.850
628.21	298.850
628.56	291.950
628.90	281.400
629.25	278.600
629.59	282.200
629.93	286.550
630.28	302.900
630.62	317.400
630.96	332.700
631.31	339.550
631.65	337.350
631.99	322.600
632.34	307.100
632.68	285.800
633.02	261.400
633.36	247.650
633.71	234.650
634.05	230.750
634.39	226.250
634.74	227.100
635.08	230.950
635.42	230.200
635.76	230.700
636.11	225.950
636.45	220.350
636.79	209.800
637.14	199.750
637.48	193.800
637.82	184.800
638.16	181.700
638.50	178.850
638.85	177.250
639.19	179.100
639.53	179.850
639.87	178.400
640.22	180.150
640.56	178.200
640.90	175.900
641.24	174.050
641.58	170.300
641.93	167.850
642.27	164.700
642.61	163.750
642.95	161.800
643.29	160.350
643.64	159.950
643.98	161.000
644.32	162.050
644.66	160.300
645.00	160.000
645.34	160.150
645.68	157.900
646.03	156.850
646.37	155.000
646.71	153.550
647.05	154.750
647.39	153.150
647.73	153.500
648.07	153.450
648.42	153.250
648.76	152.850
649.10	153.550
649.44	153.650
649.78	151.600
650.12	152.400
650.46	151.600
650.80	150.700
651.14	151.850
651.48	149.150
651.82	150.250
652.16	151.000
652.51	149.750
652.85	147.750
653.19	150.350
653.53	149.100
653.87	148.400
654.21	148.800
654.55	149.850
654.89	149.300
655.23	149.800
655.57	150.050
655.91	149.450
656.25	149.100
656.59	148.700
656.93	149.750
657.27	148.650
657.61	150.500
657.95	148.550
658.29	148.400
658.63	147.900
658.97	150.650
659.31	149.800
659.65	148.550
659.99	148.650
660.33	149.850
660.67	148.200
661.01	148.850
661.35	148.450
661.68	148.300
662.02	147.150
662.36	146.900
662.70	147.900
663.04	147.050
663.38	150.150
663.72	148.400
664.06	148.000
664.40	146.500
664.74	148.950
665.08	148.500
665.42	148.450
665.75	147.700
666.09	146.900
666.43	151.200
666.77	149.000
667.11	146.300
667.45	148.700
667.79	148.350
668.12	146.150
668.46	146.900
668.80	146.850
669.14	146.350
669.48	147.900
669.82	147.100
670.16	148.350
670.49	147.500
670.83	148.100
671.17	147.100
671.51	148.250
671.85	147.250
672.18	147.050
672.52	147.450
672.86	147.400
673.20	147.500
673.54	146.350
673.87	147.450
674.21	149.800
674.55	147.300
674.89	148.400
675.22	146.650
675.56	147.250
675.90	146.450
676.24	147.700
676.57	147.500
676.91	147.050
677.25	146.600
677.59	147.000
677.92	146.150
678.26	145.900
678.60	147.200
678.93	147.300
679.27	148.050
679.61	146.900
679.95	146.750
680.28	147.300
680.62	146.650
680.96	145.650
681.29	146.250
681.63	147.150
681.97	146.450
682.30	145.950
682.64	146.550
682.98	146.300
683.31	147.750
683.65	147.700
683.99	145.050
684.32	146.400
684.66	146.750
685.00	146.150
685.33	147.050
685.67	145.900
686.00	146.100
686.34	147.050
686.68	148.500
687.01	146.500
687.35	146.600
687.68	147.150
688.02	147.150
688.36	146.450
688.69	145.800
689.03	145.500
689.36	146.750
689.70	146.800
690.03	146.300
690.37	145.150
690.71	146.000
691.04	146.000
691.38	146.800
691.71	146.000
692.05	146.650
692.38	146.400
692.72	146.300
693.05	146.650
693.39	146.500
693.72	146.750
694.06	145.400
694.39	145.900
694.73	145.550
695.06	145.600
695.40	146.650
695.73	145.400
696.07	146.700
696.40	146.650
696.74	147.900
697.07	146.300
697.41	144.800
697.74	147.650
698.08	145.800
698.41	146.600
698.74	146.450
699.08	146.050
699.41	147.050
699.75	145.900
700.08	145.050
700.42	145.050
700.75	145.850
701.08	145.800
701.42	145.650
701.75	146.150
702.09	146.950
702.42	147.650
702.75	147.400
703.09	146.000
703.42	146.150
703.75	147.050
704.09	146.500
704.42	146.250
704.76	146.400
705.09	146.150
705.42	146.350
705.76	146.750
706.09	145.700
706.42	148.050
706.76	146.350
707.09	145.950
707.42	147.150
707.76	146.700
708.09	146.250
708.42	146.600
708.75	146.700
709.09	145.450
709.42	145.100
709.75	146.000
710.09	147.950
710.42	147.500
710.75	147.350
711.08	145.850
711.42	146.800
711.75	146.400
712.08	145.800
712.41	144.950
712.75	146.750
713.08	145.100
713.41	146.200
713.74	145.750
714.08	147.150
714.41	146.350
714.74	146.450
715.07	146.650
715.41	145.100
715.74	146.200
716.07	145.900
716.40	146.150
716.73	145.800
717.06	145.950
717.40	147.250
717.73	145.150
718.06	145.350
718.39	145.600
718.72	145.200
719.05	144.750
719.39	146.400
719.72	145.300
720.05	146.400
720.38	146.900
720.71	145.750
721.04	147.150
721.37	146.000
721.71	145.450
722.04	145.200
722.37	144.950
722.70	145.500
723.03	146.400
723.36	145.600
723.69	145.700
724.02	145.800
724.35	146.000
724.68	146.150
725.01	144.850
725.35	145.500
725.68	146.600
726.01	146.350
726.34	147.400
726.67	146.300
727.00	145.100
727.33	145.750
727.66	146.650
727.99	145.500
728.32	145.550
728.65	146.050
728.98	145.950
729.31	145.200
729.64	145.250
729.97	144.700
730.30	145.650
730.63	146.350
730.96	146.450
731.29	145.900
731.62	145.250
731.95	148.150
732.28	147.950
732.61	146.550
732.94	147.000
733.27	146.100
733.60	146.400
733.93	145.100
734.25	146.050
734.58	145.250
734.91	145.650
735.24	144.200
735.57	146.350
735.90	145.650
736.23	145.650
736.56	145.550
736.89	145.900
737.22	145.500
737.55	145.650
737.87	147.550
738.20	144.900
738.53	144.650
738.86	146.100
739.19	146.150
739.52	147.950
739.85	146.550
740.17	145.050
740.50	145.450
740.83	145.150
741.16	145.350
741.49	145.850
741.82	145.600
742.14	146.550
742.47	145.350
742.80	145.550
743.13	143.800
743.46	145.800
743.78	147.500
744.11	145.700
744.44	145.650
744.77	146.750
745.10	146.900
745.42	145.000
745.75	144.950
746.08	145.800
746.41	146.250
746.73	145.350
747.06	146.500
747.39	145.600
747.72	145.650
748.04	146.450
748.37	146.050
748.70	146.150
749.02	146.200
749.35	145.800
749.68	144.850
750.01	145.950
750.33	147.450
750.66	146.050
750.99	147.050
751.31	145.100
751.64	144.150
751.97	145.050
752.29	146.500
752.62	146.000
752.95	146.250
753.27	146.050
753.60	145.900
753.93	144.900
754.25	145.450
754.58	144.650
754.91	146.300
755.23	147.950
755.56	148.300
755.88	146.000
756.21	146.900
756.54	145.600
756.86	146.050
757.19	144.700
757.51	145.500
757.84	145.650
758.17	145.100
758.49	145.550
758.82	144.900
759.14	145.000
759.47	145.900
759.79	145.750
760.12	145.050
760.44	146.000
760.77	145.050
761.09	145.350
761.42	145.900
761.75	147.000
762.07	145.550
762.40	146.300
762.72	144.850
763.05	145.800
763.37	145.300
763.70	145.250
764.02	145.700
764.35	144.400
764.67	144.550
764.99	145.750
765.32	144.150
765.64	145.100
765.97	144.450
766.29	145.200
766.62	145.000
766.94	146.450
767.27	145.850
767.59	144.000
767.91	145.650
768.24	145.800
768.56	145.200
768.89	146.300
769.21	147.000
769.54	148.000
769.86	149.050
770.18	148.450
770.51	146.900
770.83	146.450
771.15	144.900
771.48	144.400
771.80	144.750
772.13	146.450
772.45	146.400
772.77	146.200
773.10	144.750
773.42	145.850
773.74	145.700
774.07	145.350
774.39	145.300
774.71	145.700
775.04	146.450
775.36	144.750
775.68	145.500
776.01	145.100
776.33	144.250
776.65	145.250
776.97	144.250
777.30	147.000
777.62	146.200
777.94	145.800
778.26	145.950
778.59	145.200
778.91	144.950
779.23	146.000
779.55	144.800
779.88	145.600
780.20	145.550
780.52	144.550
780.84	143.300
781.17	145.250
781.49	145.150
781.81	145.150
782.13	144.500
782.45	145.950
782.78	144.950
783.10	145.450
783.42	145.750
783.74	144.750
784.06	146.650
784.39	144.950
784.71	145.200
785.03	145.050
785.35	145.600
785.67	145.400
785.99	143.750
786.31	144.600
786.64	145.750
786.96	145.250
787.28	145.950
787.60	144.550
787.92	145.900
788.24	145.600
788.56	144.600
788.88	144.050
789.20	149.850
789.53	146.750
789.85	144.400
790.17	144.050
790.49	145.500
790.81	145.300
791.13	146.300
791.45	145.750
791.77	145.500
792.09	146.300
792.41	145.250
792.73	145.700
793.05	145.050
793.37	145.800
793.69	147.200
794.01	145.250
794.33	145.050
794.65	144.700
794.97	144.500
795.29	144.750
795.61	145.150
795.93	145.250
796.25	144.300
796.57	144.700
796.89	145.200
797.21	146.300
797.53	144.000
797.85	144.650
798.17	145.750
798.49	145.750
798.81	146.300
799.13	146.200
799.45	147.200
799.77	145.800
800.08	146.350
800.40	145.350
800.72	146.050
801.04	145.300
801.36	145.100
801.68	144.650
802.00	144.450
802.32	147.200
802.64	145.900
802.95	145.300
803.27	145.400
803.59	145.600
803.91	146.100
804.23	144.200
804.55	145.100
804.87	146.000
805.18	145.700
805.50	145.450
805.82	144.600
806.14	145.500
806.46	144.650
806.77	145.300
807.09	147.250
807.41	145.000
807.73	144.500
808.05	145.950
808.36	146.750
808.68	145.000
809.00	146.600
809.32	146.350
809.63	145.000
809.95	147.750
810.27	145.800
810.59	144.550
810.90	144.150
811.22	144.400
811.54	145.300
811.86	144.850
812.17	145.450
812.49	144.050
812.81	144.700
813.12	144.250
813.44	145.300
813.76	144.800
814.08	144.750
814.39	144.200
814.71	144.100
815.03	143.550
815.34	143.600
815.66	144.100
815.98	144.850
816.29	144.750
816.61	145.900
816.92	144.800
817.24	144.100
817.56	146.250
817.87	144.400
818.19	144.800
818.51	145.850
818.82	144.600
819.14	146.050
819.45	146.100
819.77	144.800
820.09	146.250
820.40	145.150
820.72	143.600
821.03	143.950
821.35	145.600
821.66	145.250
821.98	146.750
822.29	147.050
822.61	147.700
822.93	148.150
823.24	148.300
823.56	147.300
823.87	145.550
824.19	145.550
824.50	144.500
824.82	145.850
825.13	144.900
825.45	146.450
825.76	146.000
826.08	145.350
826.39	144.650
826.71	144.850
827.02	145.050
827.33	144.700
827.65	144.250
827.96	144.200
828.28	144.650
828.59	145.050
828.91	144.550
829.22	144.750
829.54	144.650
829.85	146.300
830.16	146.000
830.48	145.250
830.79	145.150
831.11	143.950
831.42	143.250
831.73	145.550
832.05	145.100
832.36	145.700
832.67	145.100
832.99	146.350
833.30	145.000
833.62	144.900
833.93	145.350
834.24	145.100
834.56	145.250
834.87	143.900
835.18	146.050
835.50	145.400
835.81	144.350
836.12	144.550
836.43	145.350
836.75	144.400
837.06	144.750
837.37	144.600
837.69	144.300
838.00	145.400
838.31	144.700
838.62	145.050
838.94	144.950
839.25	145.000
839.56	144.600
839.87	145.850
840.19	145.850
840.50	145.900
840.81	144.350
841.12	144.750
841.44	144.850
841.75	144.450
842.06	144.050
842.37	143.400
842.68	145.650
843.00	145.550
843.31	143.600
843.62	144.600
843.93	144.550
844.24	145.850
844.55	143.150
844.87	144.950
845.18	146.350
845.49	144.750
845.80	146.650
846.11	145.550
846.42	144.600
846.73	144.800
847.05	143.800
847.36	144.800
847.67	145.200
847.98	144.050
848.29	144.050
848.60	144.750
848.91	144.050
849.22	143.500
849.53	144.800
849.84	144.950
850.15	144.100
850.46	145.750
850.78	144.400
851.09	143.500
851.40	144.100
851.71	145.100
852.02	143.550
852.33	144.500
852.64	146.100
852.95	144.050
853.26	144.500
853.57	145.350
853.88	146.850
854.19	145.150
854.50	145.650
854.81	146.000
855.12	146.000
855.43	144.650
855.74	144.650
856.05	143.900
856.35	144.150
856.66	143.650
856.97	145.300
857.28	145.200
857.59	145.850
857.90	144.550
858.21	144.950
858.52	144.650
858.83	144.250
859.14	144.150
859.45	145.100
859.76	143.650
860.06	145.700
860.37	144.150
860.68	145.900
860.99	145.200
861.30	144.900
861.61	144.400
861.92	145.000
862.23	145.050
862.53	145.300
862.84	144.500
863.15	143.800
863.46	145.450
863.77	145.300
864.08	145.500
864.38	144.650
864.69	146.200
865.00	144.100
865.31	144.900
865.61	145.400
865.92	146.150
866.23	144.850
866.54	144.200
866.85	143.650
867.15	143.050
867.46	144.300
867.77	145.050
868.08	145.150
868.38	143.650
868.69	143.450
869.00	145.950
869.30	144.700
869.61	145.200
869.92	146.750
870.23	145.900
870.53	144.200
870.84	143.900
871.15	144.300
871.45	144.950
871.76	145.800
872.07	145.050
872.37	145.050
872.68	143.200
872.99	145.250
873.29	145.550
873.60	144.450
873.91	145.300
874.21	143.500
874.52	145.400
874.82	145.900
875.13	145.200
875.44	145.050
875.74	145.000
876.05	146.250
876.35	143.850
876.66	144.750
876.97	144.400
877.27	145.400
877.58	144.700
877.88	145.700
878.19	145.900
878.49	144.550
878.80	145.250
879.10	146.450
879.41	144.650
879.72	145.450
880.02	144.700
880.33	145.000
880.63	144.650
880.94	143.700
881.24	143.700
881.55	144.000
881.85	143.850
882.16	144.550
882.46	145.700
882.76	145.400
883.07	144.350
883.37	144.550
883.68	144.200
883.98	144.750
884.29	144.000
884.59	143.500
884.90	145.650
885.20	144.800
885.50	144.550
885.81	144.750
886.11	145.200
886.42	144.250
886.72	144.050
887.02	144.300
887.33	144.750
887.63	143.800
887.94	144.800
888.24	144.750
888.54	143.900
888.85	144.000
889.15	146.250
889.45	145.600
889.76	144.850
890.06	144.250
890.36	146.100
890.67	147.800
890.97	144.750
891.27	144.250
891.58	144.600
891.88	143.400
892.18	143.450
892.48	144.300
892.79	144.200
893.09	143.750
893.39	143.900
893.70	144.700
894.00	143.900
894.30	145.800
894.60	145.500
894.91	144.600
895.21	144.900
895.51	145.650
895.81	145.100
896.11	144.550
896.42	145.500
896.72	144.500
897.02	145.200
897.32	144.450
897.62	143.750
897.93	143.300
898.23	143.850
898.53	144.800
898.83	144.800
899.13	145.250
899.43	143.450
899.74	144.200
900.04	145.150
900.34	144.350
900.64	143.600
900.94	144.450
901.24	145.150
901.54	145.200
901.84	145.200
902.15	144.000
902.45	144.850
902.75	144.100
903.05	144.950
903.35	144.050
903.65	145.400
903.95	144.100
904.25	142.900
904.55	143.950
904.85	144.800
905.15	145.350
905.45	145.650
905.75	144.050
906.05	144.650
906.35	144.050
906.65	144.750
906.95	144.900
907.25	144.700
907.55	145.450
907.85	144.600
908.15	144.650
908.45	144.200
908.75	142.800
909.05	144.950
909.35	144.050
909.65	144.700
909.95	145.700
910.25	143.700
910.55	144.800
910.85	145.750
911.15	144.250
911.45	144.600
911.75	145.450
912.05	144.350
912.34	146.200
912.64	145.050
912.94	144.050
913.24	144.450
913.54	144.600
913.84	145.300
914.14	144.600
914.44	144.450
914.73	144.700
915.03	144.050
915.33	144.100
915.63	143.850
915.93	144.300
916.23	143.550
916.52	144.100
916.82	145.150
917.12	145.700
917.42	145.100
917.72	144.150
918.01	145.150
918.31	143.250
918.61	145.100
918.91	145.100
919.21	146.650
919.50	144.800
919.80	143.000
920.10	144.500
920.40	145.200
920.69	144.500
920.99	144.650
921.29	143.450
921.58	143.450
921.88	142.750
922.18	144.650
922.48	144.700
922.77	144.700
923.07	144.900
923.37	145.650
923.66	144.900
923.96	143.900
924.26	143.700
924.55	145.400
924.85	144.800
925.15	143.600
925.44	143.450
925.74	143.500
926.04	145.550
926.33	144.800
926.63	143.700
926.92	144.300
927.22	145.850
927.52	144.300
927.81	144.150
928.11	143.700
928.40	144.550
928.70	144.200
929.00	144.450
929.29	144.300
929.59	143.050
929.88	144.300
930.18	143.450
930.47	143.500
930.77	143.250
931.06	144.700
931.36	142.700
931.65	143.800
931.95	143.000
932.24	143.200
932.54	145.400
932.83	143.750
933.13	145.550
933.42	142.900
933.72	143.600
934.01	144.500
934.31	144.200
934.60	143.650
934.90	143.800
935.19	143.950
935.49	143.950
935.78	144.000
936.07	144.450
936.37	143.750
936.66	143.300
936.96	144.100
937.25	143.950
937.54	144.200
937.84	143.350
938.13	143.450
938.43	144.350
938.72	144.300
939.01	144.350
939.31	143.600
939.60	144.500
939.89	144.100
940.19	144.100
940.48	144.600
940.77	145.600
941.07	143.950
941.36	144.450
941.65	144.000
941.95	145.550
942.24	143.900
942.53	145.000
942.82	143.500
943.12	143.700
943.41	142.700
943.70	143.600
944.00	143.950
944.29	144.150
944.58	143.000
944.87	143.650
945.17	143.900
945.46	143.100
945.75	144.500
946.04	145.200
946.33	144.100
946.63	143.600
946.92	143.500
947.21	143.750
947.50	144.500
947.79	144.600
948.09	144.400
948.38	144.500
948.67	145.100
948.96	143.450
949.25	143.900
949.54	143.450
949.83	144.250
950.13	144.750
950.42	144.100
950.71	144.700
951.00	143.850
951.29	144.100
951.58	143.500
951.87	146.600
952.16	144.850
952.45	143.950
952.75	144.700
953.04	144.750
953.33	145.900
953.62	144.700
953.91	145.100
954.20	144.500
954.49	144.700
954.78	143.600
955.07	143.900
955.36	145.550
955.65	144.550
955.94	143.900
956.23	145.400
956.52	145.100
956.81	145.650
957.10	144.250
957.39	144.150
957.68	143.800
957.97	143.500
958.26	144.300
958.55	144.600
958.84	144.650
959.13	144.900
959.42	146.750
959.71	144.550
960.00	142.850
960.28	143.350
960.57	143.250
960.86	143.500
961.15	142.900
961.44	143.600
961.73	144.300
962.02	143.750
962.31	144.750
962.60	144.900
962.88	143.650
963.17	144.350
963.46	143.800
963.75	143.200
964.04	143.850
964.33	145.200
964.61	144.350
964.90	143.550
965.19	144.550
965.48	144.300
965.77	144.000
966.05	145.250
966.34	143.850
966.63	144.800
966.92	144.300
967.21	144.500
967.49	143.500
967.78	144.650
968.07	144.450
968.36	145.500
968.64	144.950
968.93	143.950
969.22	144.000
969.51	144.200
969.79	143.500
970.08	144.250
970.37	145.850
970.65	144.400
970.94	143.300
971.23	144.700
971.51	142.800
971.80	144.400
972.09	143.150
972.37	144.150
972.66	145.100
972.95	145.250
973.23	143.500
973.52	143.750
973.81	143.500
974.09	143.150
974.38	143.950
974.66	144.250
974.95	144.550
975.24	143.800
975.52	144.750
975.81	143.750
976.09	142.550
976.38	144.150
976.66	145.350
976.95	144.550
977.24	142.950
977.52	144.200
977.81	143.800
978.09	143.000
978.38	144.550
978.66	145.000
978.95	144.600
979.23	143.850
979.52	143.950
979.80	144.050
980.09	143.950
980.37	145.650
980.66	143.400
980.94	144.500
981.23	145.200
981.51	143.650
981.80	143.850
982.08	143.150
982.36	145.400
982.65	144.650
982.93	145.000
983.22	144.350
983.50	144.550
983.78	144.650
984.07	143.850
984.35	143.850
984.64	142.900
984.92	144.650
985.20	144.300
985.49	144.800
985.77	144.450
986.05	145.200
986.34	144.150
986.62	144.100
986.91	145.600
987.19	145.000
987.47	144.050
987.75	143.550
988.04	143.850
988.32	144.600
988.60	144.200
988.89	144.400
989.17	143.100
989.45	143.900
989.74	144.500
990.02	143.900
990.30	143.600
990.58	144.300
990.87	144.100
991.15	144.350
991.43	143.900
991.71	144.000
991.99	145.200
992.28	144.200
992.56	144.350
992.84	144.550
993.12	143.350
993.40	144.350
993.69	144.350
993.97	142.700
994.25	145.050
994.53	144.800
994.81	144.400
995.09	143.500
995.38	143.650
995.66	145.100
995.94	144.750
996.22	145.100
996.50	143.150
996.78	142.900
997.06	144.000
997.34	143.300
997.63	143.900
997.91	144.650
998.19	144.500
998.47	143.800
998.75	144.150
999.03	142.600
999.31	143.850
999.59	145.550
999.87	143.500
1000.15	144.750
1000.43	144.100
1000.71	143.750
1000.99	142.650
1001.27	143.800
1001.55	144.000
1001.83	143.650
1002.11	143.550
1002.39	144.400
1002.67	144.550
1002.95	145.200
1003.23	142.600
1003.51	144.350
1003.79	144.450
1004.07	143.650
1004.35	144.100
1004.63	144.550
1004.91	144.050
1005.19	143.650
1005.46	144.300
1005.74	143.800
1006.02	144.400
1006.30	143.800
1006.58	144.600
1006.86	144.750
1007.14	143.950
1007.42	144.450
1007.70	143.450
1007.97	144.300
1008.25	142.900
1008.53	143.300
1008.81	143.500
1009.09	143.700
1009.37	142.600
1009.64	142.700
1009.92	143.650
1010.20	144.450
1010.48	145.000
1010.76	143.650
1011.03	143.750
1011.31	144.500
1011.59	143.350
1011.87	144.050
1012.14	144.100
1012.42	144.100
1012.70	144.350
1012.98	143.700
1013.25	142.800
1013.53	142.850
1013.81	143.500
1014.08	142.900
1014.36	144.500
1014.64	142.950
1014.92	143.350
1015.19	143.100
1015.47	144.050
1015.75	144.400
1016.02	144.250
1016.30	144.200
1016.58	145.250
1016.85	143.800
>>>>>End Spectral Data<<<<<
