OOIBase32 Version 2.0.6.5 Data File
++++++++++++++++++++++++++++++++++++
Date: 04-16-2021, 17:09:03
User: Valued Ocean Optics Customer
Spectrometer Serial Number: USB2E5007
Spectrometer Channel: Master
Integration Time (msec): 45
Spectra Averaged: 20
Boxcar Smoothing: 0
Correct for Electrical Dark: Disabled
Time Normalized: Disabled
Dual-beam Reference: Disabled
Reference Channel: Master
Temperature: Not acquired
Spectrometer Type: S2000
ADC Type: USB2000
Number of Pixels in File: 2048
Graph Title: 
>>>>>Begin Spectral Data<<<<<
340.15	0.000
340.52	129.750
340.90	131.800
341.27	134.300
341.64	134.950
342.01	137.900
342.38	138.850
342.76	139.150
343.13	139.800
343.50	140.650
343.87	139.900
344.24	141.300
344.61	140.950
344.98	140.300
345.36	140.250
345.73	141.200
346.10	140.400
346.47	142.150
346.84	139.750
347.21	139.000
347.58	140.300
347.96	144.100
348.33	139.650
348.70	139.600
349.07	140.500
349.44	141.200
349.81	143.900
350.18	143.450
350.55	143.900
350.92	144.450
351.30	144.050
351.67	143.000
352.04	143.250
352.41	143.400
352.78	143.750
353.15	144.150
353.52	144.050
353.89	146.100
354.26	143.700
354.63	144.600
355.00	143.800
355.37	144.200
355.75	144.650
356.12	144.150
356.49	144.500
356.86	144.550
357.23	143.600
357.60	146.450
357.97	144.300
358.34	143.850
358.71	145.850
359.08	145.800
359.45	145.150
359.82	145.900
360.19	146.550
360.56	145.900
360.93	144.350
361.30	145.300
361.67	146.200
362.04	145.550
362.41	145.800
362.78	146.550
363.15	146.900
363.52	146.800
363.89	145.700
364.26	146.550
364.63	146.450
365.00	146.700
365.37	145.550
365.74	145.950
366.11	146.400
366.48	146.800
366.85	147.750
367.22	146.500
367.59	148.250
367.96	146.000
368.33	146.400
368.70	147.200
369.07	146.550
369.44	147.550
369.81	148.400
370.18	148.550
370.55	147.100
370.92	146.850
371.29	147.100
371.66	148.250
372.03	147.500
372.40	147.300
372.77	147.450
373.13	147.150
373.50	148.350
373.87	147.150
374.24	148.400
374.61	148.650
374.98	148.000
375.35	148.900
375.72	149.000
376.09	148.950
376.46	148.450
376.83	148.450
377.20	148.650
377.56	147.000
377.93	148.450
378.30	148.150
378.67	148.050
379.04	147.900
379.41	148.800
379.78	148.400
380.15	150.400
380.51	148.450
380.88	148.700
381.25	148.300
381.62	150.350
381.99	147.750
382.36	148.200
382.73	149.300
383.09	149.050
383.46	149.150
383.83	148.950
384.20	150.450
384.57	149.550
384.94	150.000
385.31	148.900
385.67	150.850
386.04	149.900
386.41	149.400
386.78	149.150
387.15	150.400
387.51	150.300
387.88	149.400
388.25	149.250
388.62	150.250
388.99	149.700
389.36	150.200
389.72	150.050
390.09	152.000
390.46	150.950
390.83	150.800
391.19	148.050
391.56	148.300
391.93	150.550
392.30	151.350
392.67	152.050
393.03	149.950
393.40	151.000
393.77	151.850
394.14	150.850
394.50	152.550
394.87	150.400
395.24	150.950
395.61	150.000
395.97	151.750
396.34	151.950
396.71	149.850
397.08	152.600
397.44	151.800
397.81	151.000
398.18	152.250
398.55	151.400
398.91	151.450
399.28	151.150
399.65	152.350
400.01	153.050
400.38	151.350
400.75	151.600
401.12	153.100
401.48	151.550
401.85	152.300
402.22	153.650
402.58	152.050
402.95	153.100
403.32	153.950
403.68	152.300
404.05	152.600
404.42	153.300
404.78	153.450
405.15	154.250
405.52	154.700
405.88	154.650
406.25	153.750
406.62	153.700
406.98	152.950
407.35	154.850
407.72	155.400
408.08	155.350
408.45	156.600
408.82	156.300
409.18	156.050
409.55	157.500
409.91	158.050
410.28	157.700
410.65	157.100
411.01	158.050
411.38	158.600
411.75	160.450
412.11	162.050
412.48	162.150
412.84	163.200
413.21	162.700
413.58	164.250
413.94	166.450
414.31	167.100
414.67	168.200
415.04	168.650
415.41	170.750
415.77	171.650
416.14	171.600
416.50	175.000
416.87	175.700
417.23	178.400
417.60	180.750
417.97	181.600
418.33	184.650
418.70	187.050
419.06	190.550
419.43	192.150
419.79	195.600
420.16	198.700
420.52	205.250
420.89	209.000
421.25	210.800
421.62	218.400
421.98	218.100
422.35	224.950
422.72	224.050
423.08	236.250
423.45	242.500
423.81	244.450
424.18	253.400
424.54	257.100
424.91	264.300
425.27	274.950
425.64	284.200
426.00	295.550
426.37	305.800
426.73	309.500
427.09	325.500
427.46	338.650
427.82	347.500
428.19	355.850
428.55	369.600
428.92	383.650
429.28	410.950
429.65	426.400
430.01	457.750
430.38	460.150
430.74	473.750
431.11	478.950
431.47	536.250
431.83	533.300
432.20	581.650
432.56	588.250
432.93	632.100
433.29	632.800
433.66	652.150
434.02	715.000
434.38	693.700
434.75	775.500
435.11	764.850
435.48	825.350
435.84	835.850
436.20	912.750
436.57	911.850
436.93	965.950
437.30	1035.000
437.66	1020.200
438.02	1148.200
438.39	1185.250
438.75	1207.550
439.12	1332.500
439.48	1361.500
439.84	1393.200
440.21	1457.400
440.57	1498.050
440.93	1723.850
441.30	1726.100
441.66	1757.150
442.02	1876.250
442.39	1870.450
442.75	1956.050
443.11	1990.750
443.48	2096.050
443.84	2174.400
444.20	2174.300
444.57	2440.050
444.93	2482.700
445.29	2655.800
445.66	2616.650
446.02	2723.200
446.38	2953.950
446.75	2977.450
447.11	3094.350
447.47	2997.600
447.84	3104.600
448.20	3309.550
448.56	3429.600
448.92	3498.750
449.29	3482.150
449.65	3494.200
450.01	3592.350
450.37	3509.350
450.74	3643.750
451.10	3730.500
451.46	3797.950
451.83	3613.500
452.19	3652.750
452.55	3488.950
452.91	3678.100
453.28	3694.700
453.64	3729.700
454.00	3667.100
454.36	3330.400
454.72	3560.350
455.09	3404.200
455.45	3424.550
455.81	3322.050
456.17	3212.900
456.54	3164.850
456.90	3132.800
457.26	2910.900
457.62	2933.950
457.98	2908.650
458.35	2869.400
458.71	2690.550
459.07	2652.750
459.43	2506.850
459.79	2489.950
460.16	2333.600
460.52	2276.450
460.88	2253.600
461.24	2253.050
461.60	2196.100
461.96	2201.500
462.33	2089.500
462.69	1998.400
463.05	1933.150
463.41	1939.350
463.77	1870.450
464.13	1770.550
464.49	1815.350
464.86	1745.350
465.22	1691.650
465.58	1664.500
465.94	1676.950
466.30	1586.400
466.66	1618.800
467.02	1589.950
467.38	1527.000
467.75	1486.200
468.11	1435.800
468.47	1409.450
468.83	1400.800
469.19	1376.900
469.55	1360.300
469.91	1293.350
470.27	1210.650
470.63	1238.250
470.99	1216.600
471.35	1158.050
471.72	1157.400
472.08	1134.050
472.44	1092.050
472.80	1045.550
473.16	1049.900
473.52	1000.750
473.88	971.750
474.24	949.700
474.60	938.000
474.96	915.700
475.32	885.550
475.68	856.950
476.04	849.700
476.40	824.450
476.76	811.100
477.12	780.750
477.48	770.150
477.84	760.950
478.20	740.400
478.56	723.500
478.92	704.750
479.28	693.200
479.64	677.400
480.00	668.700
480.36	659.700
480.72	635.850
481.08	629.450
481.44	616.150
481.80	599.850
482.16	589.450
482.52	578.000
482.88	570.550
483.24	563.800
483.60	553.300
483.96	542.550
484.32	532.650
484.68	520.150
485.04	512.100
485.40	503.350
485.76	492.350
486.12	485.600
486.48	476.600
486.83	465.500
487.19	454.650
487.55	444.700
487.91	437.800
488.27	426.850
488.63	421.550
488.99	410.650
489.35	403.250
489.71	390.350
490.07	384.450
490.43	374.550
490.78	369.650
491.14	360.450
491.50	353.900
491.86	346.200
492.22	338.150
492.58	329.500
492.94	323.400
493.30	317.900
493.65	311.000
494.01	304.950
494.37	302.550
494.73	296.100
495.09	289.500
495.45	285.550
495.80	279.950
496.16	276.650
496.52	271.900
496.88	265.900
497.24	262.650
497.60	260.450
497.95	255.350
498.31	252.600
498.67	247.600
499.03	246.250
499.39	242.600
499.74	237.900
500.10	237.650
500.46	232.950
500.82	230.800
501.18	230.050
501.53	226.250
501.89	224.700
502.25	221.700
502.61	219.050
502.96	218.450
503.32	215.800
503.68	215.650
504.04	211.800
504.40	208.300
504.75	207.200
505.11	206.200
505.47	203.500
505.82	203.200
506.18	201.550
506.54	198.000
506.90	198.150
507.25	195.900
507.61	195.250
507.97	192.500
508.33	193.050
508.68	190.550
509.04	188.850
509.40	188.050
509.75	185.800
510.11	187.200
510.47	186.850
510.82	183.450
511.18	181.150
511.54	181.650
511.89	180.000
512.25	179.600
512.61	179.300
512.96	178.850
513.32	176.850
513.68	177.150
514.03	175.450
514.39	175.950
514.75	175.750
515.10	175.050
515.46	173.300
515.82	172.500
516.17	171.350
516.53	171.550
516.89	171.050
517.24	170.600
517.60	170.950
517.95	169.500
518.31	168.200
518.67	169.750
519.02	170.600
519.38	167.500
519.73	167.250
520.09	168.500
520.45	166.250
520.80	164.700
521.16	164.950
521.51	166.200
521.87	164.000
522.22	164.350
522.58	164.850
522.94	163.150
523.29	162.350
523.65	162.700
524.00	163.250
524.36	163.050
524.71	162.350
525.07	160.950
525.42	161.100
525.78	161.400
526.14	160.750
526.49	161.200
526.85	160.750
527.20	161.650
527.56	160.600
527.91	160.050
528.27	159.550
528.62	158.900
528.98	159.200
529.33	158.300
529.69	157.800
530.04	157.850
530.40	158.500
530.75	157.350
531.11	158.750
531.46	158.100
531.81	157.400
532.17	157.950
532.52	157.400
532.88	156.050
533.23	156.300
533.59	157.450
533.94	156.350
534.30	155.700
534.65	155.200
535.01	155.650
535.36	157.000
535.71	155.350
536.07	156.550
536.42	157.000
536.78	155.550
537.13	155.450
537.48	156.350
537.84	156.050
538.19	158.000
538.55	158.450
538.90	159.250
539.25	161.400
539.61	163.050
539.96	163.600
540.32	163.050
540.67	159.450
541.02	161.800
541.38	160.300
541.73	160.500
542.08	159.150
542.44	159.250
542.79	158.300
543.15	159.100
543.50	161.600
543.85	164.050
544.21	163.900
544.56	163.850
544.91	162.850
545.27	157.700
545.62	157.850
545.97	156.950
546.32	156.500
546.68	155.400
547.03	155.350
547.38	155.800
547.74	155.500
548.09	154.700
548.44	153.150
548.80	154.200
549.15	153.350
549.50	152.500
549.85	154.200
550.21	152.250
550.56	152.000
550.91	152.000
551.26	151.250
551.62	152.800
551.97	151.600
552.32	151.450
552.67	151.150
553.03	151.100
553.38	151.050
553.73	152.800
554.08	152.550
554.44	150.000
554.79	151.100
555.14	150.950
555.49	150.400
555.85	150.500
556.20	150.500
556.55	150.800
556.90	148.400
557.25	148.600
557.61	151.450
557.96	151.350
558.31	149.650
558.66	149.550
559.01	150.100
559.36	149.100
559.72	151.100
560.07	150.550
560.42	149.900
560.77	151.000
561.12	150.250
561.47	150.750
561.83	149.950
562.18	150.050
562.53	149.700
562.88	149.600
563.23	151.200
563.58	148.950
563.93	149.300
564.28	151.200
564.64	149.200
564.99	150.050
565.34	149.550
565.69	151.400
566.04	149.600
566.39	149.400
566.74	148.850
567.09	148.800
567.44	151.150
567.79	149.450
568.14	149.650
568.50	148.300
568.85	148.450
569.20	147.150
569.55	148.650
569.90	149.750
570.25	149.850
570.60	148.800
570.95	149.750
571.30	149.150
571.65	148.500
572.00	147.900
572.35	150.250
572.70	149.700
573.05	148.200
573.40	147.600
573.75	147.850
574.10	148.300
574.45	149.550
574.80	149.050
575.15	149.000
575.50	149.300
575.85	148.000
576.20	149.150
576.55	148.050
576.90	150.400
577.25	148.300
577.60	148.200
577.95	148.800
578.30	148.900
578.65	150.300
579.00	149.700
579.35	150.650
579.70	149.800
580.05	148.500
580.40	149.300
580.74	149.750
581.09	149.200
581.44	149.750
581.79	150.450
582.14	149.150
582.49	150.250
582.84	149.200
583.19	149.250
583.54	149.500
583.89	148.700
584.24	148.400
584.58	149.450
584.93	147.750
585.28	148.850
585.63	150.450
585.98	149.650
586.33	149.650
586.68	149.150
587.03	149.200
587.37	147.650
587.72	148.000
588.07	147.650
588.42	147.200
588.77	147.250
589.12	148.050
589.46	147.950
589.81	148.300
590.16	148.400
590.51	148.650
590.86	148.150
591.21	148.650
591.55	148.200
591.90	147.750
592.25	147.750
592.60	147.900
592.95	147.600
593.29	149.100
593.64	148.350
593.99	148.300
594.34	147.600
594.68	148.000
595.03	147.650
595.38	147.450
595.73	147.500
596.07	146.750
596.42	147.850
596.77	147.600
597.12	147.900
597.46	146.550
597.81	146.700
598.16	145.900
598.51	148.100
598.85	147.700
599.20	146.300
599.55	147.500
599.90	146.850
600.24	145.350
600.59	146.200
600.94	145.400
601.28	147.950
601.63	147.650
601.98	147.000
602.32	146.500
602.67	147.100
603.02	147.000
603.36	147.150
603.71	146.950
604.06	146.800
604.40	147.000
604.75	148.400
605.10	147.000
605.44	148.300
605.79	146.400
606.14	146.800
606.48	147.300
606.83	146.300
607.17	147.900
607.52	147.800
607.87	147.050
608.21	148.600
608.56	150.150
608.90	153.950
609.25	156.350
609.60	157.250
609.94	155.750
610.29	155.650
610.63	153.250
610.98	152.250
611.33	151.350
611.67	151.400
612.02	150.100
612.36	149.550
612.71	149.100
613.05	148.450
613.40	147.200
613.74	148.400
614.09	148.650
614.44	147.500
614.78	145.550
615.13	147.450
615.47	146.000
615.82	147.000
616.16	146.500
616.51	147.050
616.85	146.350
617.20	145.700
617.54	148.100
617.89	145.800
618.23	145.900
618.58	145.900
618.92	145.650
619.27	146.700
619.61	146.900
619.96	146.400
620.30	146.350
620.64	146.600
620.99	147.500
621.33	147.400
621.68	146.450
622.02	147.950
622.37	146.750
622.71	146.300
623.06	146.600
623.40	146.950
623.74	147.200
624.09	146.900
624.43	147.400
624.78	145.750
625.12	144.700
625.46	146.700
625.81	146.250
626.15	146.600
626.50	146.850
626.84	146.550
627.18	147.750
627.53	145.850
627.87	146.000
628.21	146.800
628.56	146.250
628.90	146.200
629.25	145.500
629.59	146.550
629.93	146.200
630.28	145.950
630.62	145.450
630.96	146.400
631.31	146.700
631.65	146.600
631.99	145.250
632.34	144.500
632.68	144.550
633.02	144.700
633.36	145.250
633.71	145.700
634.05	145.450
634.39	144.550
634.74	144.550
635.08	144.100
635.42	144.150
635.76	145.950
636.11	144.000
636.45	146.750
636.79	145.200
637.14	143.450
637.48	144.600
637.82	144.300
638.16	144.250
638.50	145.350
638.85	145.500
639.19	147.100
639.53	146.050
639.87	144.600
640.22	144.150
640.56	144.600
640.90	143.900
641.24	144.400
641.58	144.700
641.93	145.100
642.27	145.150
642.61	145.850
642.95	145.400
643.29	143.800
643.64	144.900
643.98	144.650
644.32	144.550
644.66	143.650
645.00	145.450
645.34	145.650
645.68	145.400
646.03	145.750
646.37	145.300
646.71	144.300
647.05	144.900
647.39	143.950
647.73	145.750
648.07	146.400
648.42	145.600
648.76	145.400
649.10	146.650
649.44	147.150
649.78	145.250
650.12	145.800
650.46	145.500
650.80	146.100
651.14	146.400
651.48	145.250
651.82	143.400
652.16	146.200
652.51	145.200
652.85	143.600
653.19	144.350
653.53	144.800
653.87	143.650
654.21	144.550
654.55	144.700
654.89	144.300
655.23	144.200
655.57	144.750
655.91	144.500
656.25	146.000
656.59	143.700
656.93	144.350
657.27	144.700
657.61	146.800
657.95	144.400
658.29	144.200
658.63	144.750
658.97	145.450
659.31	145.500
659.65	143.950
659.99	144.800
660.33	145.250
660.67	146.200
661.01	144.350
661.35	144.000
661.68	145.250
662.02	144.700
662.36	143.700
662.70	145.100
663.04	145.050
663.38	146.600
663.72	146.000
664.06	144.650
664.40	144.550
664.74	144.450
665.08	146.000
665.42	144.750
665.75	143.750
666.09	143.600
666.43	147.300
666.77	145.200
667.11	143.400
667.45	144.650
667.79	144.800
668.12	143.550
668.46	143.500
668.80	143.600
669.14	144.600
669.48	144.950
669.82	144.600
670.16	144.550
670.49	144.000
670.83	144.300
671.17	143.950
671.51	144.700
671.85	143.100
672.18	143.600
672.52	144.150
672.86	144.950
673.20	144.150
673.54	145.300
673.87	143.550
674.21	144.600
674.55	145.000
674.89	144.500
675.22	144.750
675.56	143.650
675.90	145.050
676.24	145.000
676.57	143.550
676.91	144.500
677.25	144.200
677.59	144.000
677.92	143.900
678.26	143.400
678.60	143.800
678.93	144.550
679.27	144.300
679.61	145.000
679.95	143.850
680.28	143.950
680.62	144.300
680.96	144.050
681.29	144.800
681.63	145.050
681.97	144.150
682.30	144.450
682.64	144.450
682.98	144.100
683.31	146.400
683.65	144.850
683.99	142.950
684.32	144.450
684.66	143.500
685.00	144.750
685.33	144.650
685.67	144.800
686.00	144.400
686.34	144.050
686.68	146.550
687.01	143.900
687.35	143.600
687.68	144.850
688.02	143.600
688.36	144.100
688.69	144.250
689.03	144.150
689.36	144.300
689.70	143.850
690.03	144.650
690.37	144.050
690.71	144.300
691.04	144.600
691.38	143.650
691.71	144.100
692.05	142.450
692.38	144.700
692.72	143.950
693.05	144.250
693.39	143.150
693.72	145.150
694.06	143.100
694.39	142.850
694.73	143.750
695.06	143.200
695.40	143.450
695.73	144.600
696.07	144.300
696.40	144.200
696.74	145.200
697.07	144.300
697.41	143.850
697.74	145.400
698.08	143.200
698.41	143.400
698.74	143.550
699.08	143.450
699.41	144.500
699.75	144.100
700.08	143.150
700.42	143.100
700.75	143.600
701.08	144.050
701.42	143.700
701.75	144.400
702.09	144.750
702.42	146.500
702.75	143.700
703.09	143.400
703.42	143.350
703.75	143.850
704.09	143.900
704.42	144.350
704.76	144.400
705.09	143.500
705.42	143.050
705.76	145.100
706.09	144.300
706.42	145.950
706.76	145.000
707.09	143.050
707.42	143.100
707.76	144.450
708.09	142.950
708.42	144.900
708.75	145.750
709.09	143.600
709.42	144.700
709.75	144.550
710.09	146.000
710.42	144.350
710.75	143.650
711.08	144.600
711.42	144.100
711.75	144.350
712.08	143.500
712.41	142.400
712.75	145.300
713.08	145.350
713.41	144.150
713.74	143.150
714.08	144.000
714.41	143.850
714.74	142.700
715.07	145.100
715.41	143.450
715.74	144.100
716.07	143.550
716.40	145.250
716.73	144.900
717.06	143.250
717.40	144.000
717.73	143.550
718.06	144.600
718.39	144.600
718.72	144.550
719.05	143.200
719.39	143.850
719.72	143.900
720.05	143.150
720.38	143.400
720.71	144.000
721.04	144.500
721.37	144.550
721.71	144.300
722.04	143.500
722.37	142.900
722.70	143.100
723.03	143.600
723.36	143.450
723.69	142.400
724.02	143.050
724.35	144.300
724.68	144.450
725.01	142.350
725.35	143.350
725.68	144.150
726.01	143.250
726.34	144.650
726.67	143.550
727.00	141.950
727.33	143.050
727.66	144.600
727.99	144.650
728.32	143.750
728.65	143.050
728.98	143.800
729.31	143.950
729.64	144.500
729.97	143.850
730.30	142.550
730.63	143.800
730.96	142.050
731.29	141.450
731.62	142.550
731.95	143.450
732.28	144.650
732.61	143.900
732.94	143.650
733.27	143.250
733.60	144.600
733.93	142.750
734.25	142.750
734.58	143.150
734.91	143.750
735.24	143.000
735.57	144.650
735.90	144.150
736.23	143.500
736.56	143.250
736.89	143.750
737.22	143.950
737.55	144.000
737.87	145.250
738.20	142.900
738.53	143.000
738.86	144.050
739.19	144.250
739.52	145.300
739.85	142.750
740.17	143.550
740.50	143.600
740.83	143.750
741.16	142.200
741.49	143.500
741.82	142.600
742.14	143.950
742.47	143.450
742.80	144.500
743.13	143.150
743.46	143.300
743.78	143.300
744.11	142.950
744.44	143.000
744.77	144.050
745.10	144.100
745.42	143.000
745.75	142.950
746.08	143.600
746.41	142.900
746.73	142.850
747.06	143.650
747.39	142.250
747.72	142.750
748.04	142.600
748.37	143.650
748.70	143.450
749.02	143.950
749.35	144.350
749.68	143.100
750.01	142.550
750.33	144.500
750.66	143.800
750.99	144.000
751.31	143.550
751.64	141.700
751.97	142.300
752.29	144.900
752.62	142.400
752.95	143.550
753.27	142.900
753.60	144.600
753.93	142.750
754.25	143.500
754.58	144.200
754.91	144.100
755.23	145.300
755.56	147.950
755.88	144.050
756.21	144.400
756.54	142.950
756.86	143.600
757.19	143.750
757.51	142.700
757.84	142.250
758.17	143.100
758.49	143.450
758.82	143.100
759.14	143.200
759.47	143.050
759.79	143.700
760.12	143.500
760.44	143.450
760.77	142.700
761.09	142.900
761.42	143.300
761.75	144.600
762.07	143.900
762.40	142.800
762.72	143.550
763.05	143.500
763.37	143.000
763.70	142.450
764.02	144.500
764.35	143.500
764.67	142.350
764.99	143.200
765.32	142.850
765.64	143.250
765.97	142.600
766.29	144.100
766.62	142.550
766.94	145.050
767.27	144.100
767.59	141.900
767.91	143.000
768.24	143.250
768.56	142.900
768.89	143.450
769.21	141.900
769.54	142.850
769.86	143.450
770.18	142.900
770.51	143.300
770.83	143.300
771.15	143.100
771.48	142.250
771.80	142.750
772.13	143.450
772.45	144.150
772.77	143.300
773.10	142.950
773.42	142.450
773.74	143.050
774.07	143.150
774.39	142.950
774.71	142.950
775.04	144.500
775.36	141.550
775.68	141.200
776.01	142.650
776.33	142.850
776.65	142.600
776.97	142.300
777.30	143.500
777.62	143.600
777.94	143.250
778.26	142.950
778.59	143.350
778.91	141.800
779.23	144.000
779.55	144.500
779.88	142.400
780.20	143.250
780.52	141.800
780.84	142.250
781.17	142.300
781.49	142.900
781.81	143.400
782.13	142.700
782.45	143.250
782.78	143.400
783.10	143.400
783.42	144.350
783.74	142.950
784.06	142.850
784.39	142.600
784.71	143.750
785.03	143.350
785.35	143.450
785.67	142.900
785.99	142.150
786.31	142.550
786.64	144.050
786.96	143.250
787.28	143.250
787.60	141.550
787.92	143.050
788.24	143.950
788.56	141.850
788.88	142.150
789.20	145.550
789.53	143.200
789.85	142.850
790.17	142.050
790.49	143.250
790.81	142.550
791.13	142.900
791.45	143.750
791.77	144.000
792.09	144.450
792.41	142.700
792.73	142.400
793.05	141.400
793.37	143.800
793.69	144.300
794.01	143.850
794.33	144.050
794.65	142.750
794.97	141.700
795.29	142.500
795.61	142.800
795.93	142.350
796.25	143.150
796.57	143.200
796.89	142.450
797.21	143.850
797.53	141.400
797.85	142.500
798.17	143.450
798.49	142.100
798.81	143.000
799.13	142.900
799.45	143.400
799.77	142.550
800.08	142.600
800.40	142.350
800.72	142.550
801.04	142.450
801.36	142.400
801.68	142.000
802.00	142.550
802.32	143.950
802.64	142.650
802.95	142.400
803.27	142.850
803.59	143.800
803.91	142.750
804.23	143.650
804.55	142.600
804.87	142.700
805.18	143.300
805.50	142.250
805.82	142.250
806.14	142.500
806.46	143.050
806.77	142.500
807.09	143.650
807.41	141.350
807.73	141.650
808.05	143.850
808.36	143.350
808.68	142.300
809.00	142.500
809.32	142.800
809.63	141.500
809.95	144.100
810.27	143.150
810.59	140.950
810.90	142.150
811.22	142.250
811.54	141.400
811.86	142.100
812.17	144.400
812.49	143.100
812.81	142.250
813.12	141.900
813.44	142.850
813.76	141.900
814.08	142.650
814.39	142.500
814.71	143.350
815.03	142.500
815.34	141.700
815.66	141.800
815.98	141.650
816.29	142.250
816.61	143.200
816.92	143.200
817.24	141.700
817.56	142.950
817.87	142.000
818.19	143.300
818.51	142.250
818.82	142.900
819.14	142.900
819.45	142.550
819.77	141.800
820.09	144.000
820.40	143.900
820.72	142.450
821.03	141.800
821.35	142.600
821.66	142.600
821.98	143.450
822.29	143.000
822.61	142.950
822.93	143.200
823.24	142.650
823.56	143.450
823.87	141.850
824.19	142.350
824.50	140.900
824.82	143.500
825.13	143.000
825.45	141.850
825.76	144.300
826.08	142.350
826.39	143.100
826.71	142.100
827.02	143.100
827.33	141.800
827.65	142.450
827.96	141.100
828.28	142.000
828.59	143.500
828.91	141.750
829.22	142.950
829.54	141.900
829.85	142.850
830.16	142.600
830.48	143.300
830.79	143.400
831.11	141.600
831.42	142.150
831.73	141.800
832.05	142.050
832.36	142.300
832.67	142.200
832.99	141.800
833.30	142.200
833.62	142.000
833.93	142.500
834.24	142.950
834.56	142.550
834.87	142.250
835.18	143.900
835.50	141.900
835.81	140.700
836.12	142.500
836.43	141.950
836.75	142.050
837.06	141.900
837.37	142.450
837.69	141.700
838.00	143.500
838.31	142.400
838.62	142.400
838.94	140.800
839.25	141.700
839.56	142.400
839.87	143.650
840.19	143.550
840.50	142.800
840.81	141.000
841.12	142.950
841.44	142.700
841.75	142.700
842.06	140.350
842.37	141.450
842.68	142.850
843.00	142.700
843.31	142.150
843.62	143.050
843.93	142.550
844.24	142.550
844.55	141.600
844.87	141.850
845.18	142.800
845.49	142.750
845.80	143.900
846.11	142.100
846.42	142.150
846.73	142.250
847.05	141.900
847.36	142.250
847.67	142.150
847.98	141.500
848.29	141.300
848.60	141.750
848.91	140.950
849.22	141.500
849.53	141.850
849.84	142.750
850.15	141.750
850.46	142.550
850.78	142.850
851.09	141.450
851.40	142.550
851.71	143.550
852.02	141.400
852.33	141.600
852.64	143.400
852.95	142.350
853.26	142.000
853.57	142.150
853.88	143.200
854.19	142.200
854.50	142.400
854.81	143.150
855.12	142.500
855.43	141.950
855.74	141.550
856.05	143.250
856.35	142.450
856.66	141.400
856.97	142.300
857.28	143.600
857.59	142.250
857.90	141.250
858.21	141.300
858.52	142.400
858.83	140.650
859.14	141.600
859.45	142.350
859.76	141.500
860.06	142.200
860.37	142.200
860.68	142.100
860.99	141.450
861.30	141.350
861.61	142.600
861.92	142.150
862.23	142.550
862.53	143.250
862.84	142.800
863.15	141.600
863.46	143.150
863.77	141.850
864.08	142.250
864.38	141.750
864.69	142.250
865.00	141.900
865.31	142.850
865.61	141.500
865.92	144.500
866.23	142.750
866.54	142.400
866.85	142.200
867.15	142.000
867.46	141.850
867.77	143.150
868.08	141.550
868.38	141.850
868.69	141.600
869.00	144.550
869.30	142.500
869.61	142.100
869.92	142.500
870.23	141.500
870.53	142.400
870.84	141.450
871.15	141.500
871.45	142.250
871.76	141.400
872.07	143.150
872.37	142.150
872.68	141.350
872.99	142.050
873.29	143.600
873.60	143.150
873.91	141.900
874.21	141.400
874.52	141.850
874.82	143.050
875.13	142.500
875.44	143.050
875.74	143.250
876.05	143.200
876.35	142.300
876.66	141.950
876.97	142.300
877.27	141.800
877.58	142.750
877.88	143.350
878.19	142.800
878.49	141.600
878.80	141.850
879.10	142.800
879.41	141.950
879.72	140.950
880.02	143.150
880.33	143.800
880.63	141.250
880.94	142.000
881.24	141.350
881.55	141.300
881.85	141.200
882.16	142.450
882.46	142.900
882.76	144.000
883.07	143.150
883.37	143.300
883.68	142.850
883.98	143.100
884.29	142.150
884.59	142.150
884.90	143.900
885.20	142.650
885.50	142.150
885.81	141.500
886.11	143.050
886.42	142.250
886.72	142.300
887.02	142.250
887.33	141.300
887.63	141.550
887.94	142.700
888.24	143.000
888.54	141.400
888.85	141.550
889.15	142.800
889.45	143.400
889.76	142.650
890.06	142.200
890.36	143.800
890.67	146.750
890.97	143.750
891.27	142.500
891.58	142.150
891.88	141.900
892.18	142.350
892.48	142.650
892.79	141.450
893.09	141.900
893.39	141.900
893.70	142.900
894.00	141.650
894.30	142.850
894.60	143.150
894.91	142.400
895.21	142.150
895.51	143.750
895.81	143.000
896.11	141.900
896.42	141.900
896.72	143.850
897.02	144.150
897.32	142.050
897.62	142.800
897.93	140.850
898.23	142.300
898.53	144.200
898.83	143.450
899.13	141.400
899.43	142.100
899.74	142.400
900.04	143.200
900.34	142.350
900.64	142.250
900.94	143.150
901.24	142.800
901.54	143.300
901.84	143.100
902.15	141.750
902.45	142.100
902.75	141.850
903.05	142.550
903.35	143.650
903.65	142.200
903.95	143.100
904.25	141.350
904.55	143.250
904.85	142.250
905.15	142.900
905.45	143.100
905.75	142.550
906.05	143.300
906.35	141.850
906.65	142.500
906.95	143.250
907.25	142.250
907.55	142.550
907.85	141.650
908.15	142.050
908.45	141.750
908.75	141.800
909.05	142.150
909.35	142.800
909.65	141.450
909.95	143.050
910.25	142.550
910.55	143.750
910.85	145.350
911.15	142.350
911.45	142.500
911.75	142.850
912.05	142.950
912.34	144.900
912.64	142.650
912.94	142.500
913.24	141.950
913.54	143.500
913.84	144.200
914.14	142.200
914.44	142.850
914.73	142.450
915.03	143.250
915.33	141.900
915.63	142.150
915.93	143.350
916.23	142.500
916.52	142.000
916.82	142.050
917.12	143.350
917.42	143.400
917.72	141.450
918.01	143.000
918.31	142.250
918.61	144.500
918.91	142.400
919.21	143.650
919.50	142.800
919.80	142.100
920.10	142.800
920.40	142.250
920.69	141.950
920.99	143.700
921.29	142.250
921.58	142.550
921.88	142.150
922.18	143.600
922.48	143.050
922.77	142.900
923.07	143.100
923.37	143.750
923.66	141.700
923.96	141.650
924.26	142.250
924.55	143.200
924.85	143.000
925.15	142.400
925.44	141.950
925.74	141.000
926.04	142.850
926.33	141.700
926.63	143.100
926.92	142.550
927.22	143.800
927.52	143.400
927.81	142.500
928.11	142.150
928.40	142.250
928.70	141.800
929.00	142.100
929.29	142.050
929.59	142.000
929.88	142.550
930.18	141.650
930.47	142.300
930.77	141.950
931.06	142.350
931.36	142.000
931.65	143.000
931.95	141.800
932.24	141.850
932.54	143.200
932.83	142.050
933.13	142.600
933.42	141.500
933.72	141.050
934.01	142.150
934.31	142.150
934.60	142.800
934.90	141.600
935.19	142.450
935.49	143.300
935.78	143.350
936.07	143.350
936.37	142.650
936.66	141.400
936.96	142.250
937.25	141.950
937.54	141.950
937.84	140.250
938.13	141.100
938.43	141.400
938.72	142.050
939.01	141.800
939.31	142.650
939.60	142.800
939.89	141.900
940.19	142.850
940.48	143.350
940.77	143.350
941.07	141.700
941.36	143.150
941.65	140.850
941.95	143.650
942.24	142.500
942.53	141.950
942.82	141.850
943.12	142.900
943.41	142.450
943.70	142.150
944.00	142.500
944.29	142.900
944.58	142.000
944.87	142.050
945.17	142.350
945.46	141.350
945.75	142.300
946.04	141.450
946.33	142.300
946.63	142.050
946.92	141.950
947.21	141.950
947.50	142.100
947.79	143.200
948.09	142.350
948.38	142.750
948.67	141.550
948.96	141.100
949.25	143.000
949.54	141.900
949.83	142.450
950.13	141.800
950.42	141.750
950.71	141.650
951.00	142.250
951.29	141.950
951.58	142.200
951.87	143.400
952.16	142.300
952.45	142.550
952.75	141.150
953.04	141.450
953.33	142.850
953.62	141.750
953.91	142.100
954.20	142.400
954.49	141.800
954.78	142.500
955.07	141.700
955.36	143.850
955.65	143.150
955.94	141.700
956.23	143.200
956.52	142.650
956.81	142.100
957.10	141.750
957.39	142.800
957.68	142.850
957.97	142.500
958.26	142.350
958.55	141.800
958.84	142.100
959.13	143.000
959.42	144.700
959.71	142.400
960.00	142.550
960.28	142.300
960.57	140.950
960.86	142.150
961.15	141.650
961.44	141.950
961.73	142.950
962.02	142.150
962.31	143.000
962.60	143.250
962.88	141.150
963.17	142.250
963.46	141.750
963.75	141.500
964.04	143.250
964.33	143.550
964.61	142.050
964.90	141.500
965.19	142.600
965.48	141.650
965.77	142.050
966.05	141.700
966.34	142.250
966.63	142.400
966.92	142.350
967.21	141.900
967.49	142.400
967.78	143.650
968.07	141.900
968.36	143.050
968.64	142.650
968.93	141.800
969.22	141.300
969.51	142.300
969.79	141.850
970.08	142.100
970.37	144.300
970.65	142.900
970.94	141.550
971.23	141.500
971.51	140.450
971.80	142.150
972.09	141.850
972.37	140.800
972.66	142.750
972.95	143.400
973.23	142.200
973.52	141.700
973.81	142.350
974.09	142.400
974.38	141.750
974.66	142.900
974.95	141.900
975.24	142.350
975.52	143.350
975.81	141.650
976.09	142.450
976.38	142.650
976.66	144.450
976.95	142.200
977.24	141.850
977.52	141.750
977.81	141.500
978.09	141.300
978.38	142.200
978.66	142.950
978.95	141.750
979.23	142.350
979.52	141.600
979.80	141.950
980.09	141.850
980.37	143.050
980.66	141.750
980.94	142.850
981.23	143.450
981.51	141.700
981.80	142.050
982.08	140.750
982.36	143.850
982.65	142.050
982.93	142.100
983.22	141.500
983.50	143.100
983.78	142.700
984.07	142.400
984.35	141.850
984.64	141.550
984.92	142.500
985.20	141.150
985.49	141.650
985.77	141.900
986.05	141.750
986.34	143.000
986.62	141.250
986.91	142.700
987.19	144.250
987.47	142.750
987.75	141.750
988.04	142.050
988.32	143.500
988.60	141.700
988.89	140.950
989.17	141.200
989.45	143.500
989.74	142.150
990.02	142.650
990.30	141.550
990.58	142.400
990.87	142.450
991.15	142.100
991.43	141.200
991.71	143.050
991.99	142.000
992.28	142.200
992.56	142.500
992.84	141.900
993.12	141.850
993.40	142.700
993.69	142.750
993.97	141.650
994.25	143.350
994.53	142.200
994.81	143.200
995.09	141.400
995.38	141.150
995.66	142.050
995.94	142.600
996.22	142.600
996.50	142.550
996.78	141.800
997.06	142.150
997.34	141.500
997.63	142.300
997.91	141.900
998.19	142.650
998.47	141.300
998.75	142.600
999.03	141.700
999.31	143.200
999.59	143.750
999.87	143.050
1000.15	142.950
1000.43	142.200
1000.71	142.850
1000.99	142.900
1001.27	142.800
1001.55	142.900
1001.83	142.600
1002.11	141.350
1002.39	141.850
1002.67	141.950
1002.95	143.300
1003.23	142.350
1003.51	142.700
1003.79	142.850
1004.07	141.250
1004.35	141.600
1004.63	143.050
1004.91	142.800
1005.19	141.350
1005.46	142.900
1005.74	141.950
1006.02	142.000
1006.30	142.000
1006.58	142.500
1006.86	142.750
1007.14	143.750
1007.42	142.600
1007.70	140.650
1007.97	143.350
1008.25	141.400
1008.53	141.450
1008.81	141.300
1009.09	141.950
1009.37	140.900
1009.64	142.450
1009.92	141.950
1010.20	142.000
1010.48	142.550
1010.76	142.950
1011.03	142.000
1011.31	141.550
1011.59	141.900
1011.87	140.900
1012.14	142.150
1012.42	141.750
1012.70	143.200
1012.98	142.050
1013.25	141.250
1013.53	140.900
1013.81	141.600
1014.08	142.200
1014.36	141.350
1014.64	142.250
1014.92	142.400
1015.19	142.200
1015.47	142.200
1015.75	141.500
1016.02	142.150
1016.30	141.850
1016.58	143.400
1016.85	141.550
>>>>>End Spectral Data<<<<<
